<?xml version="1.0" encoding="UTF-8"?>

<Bundle xmlns="http://hl7.org/fhir">
  <id value="ltc-bundle-cms-example"/>
  <meta>
    <profile value="http://ltc-ig.fhir.tw/StructureDefinition/LTCBundleCMS"/>
  </meta>
  <identifier>
    <system value="http://ltc-ig.fhir.tw/bundle-id"/>
    <value value="cms-bundle-001"/>
  </identifier>
  <type value="document"/>
  <timestamp value="2024-01-15T14:30:00+08:00"/>
  <entry>
    <fullUrl value="http://ltc-ig.fhir.tw/Composition/ltc-composition-cms-example"/>
    <resource>
      <Composition>
        <id value="ltc-composition-cms-example"/>
        <meta>
          <profile value="http://ltc-ig.fhir.tw/StructureDefinition/LTCCompositionCMS"/>
        </meta>
        <text>
          <status value="generated"/><div xmlns="http://www.w3.org/1999/xhtml"><a name="Composition_ltc-composition-cms-example"> </a><p class="res-header-id"><b>Generated Narrative: Composition ltc-composition-cms-example</b></p><a name="ltc-composition-cms-example"> </a><a name="hcltc-composition-cms-example"> </a><div style="display: inline-block; background-color: #d9e0e7; padding: 6px; margin: 4px; border: 1px solid #8da1b4; border-radius: 5px; line-height: 60%"><p style="margin-bottom: 0px"/><p style="margin-bottom: 0px">Profile: <a href="StructureDefinition-LTCCompositionCMS.html">照顧管理評估量表文件架構</a></p></div><p><b>status</b>: Final</p><p><b>type</b>: <span title="Codes:{http://loinc.org 11503-0}">照顧管理評估量表</span></p><p><b>date</b>: 2024-01-15 14:30:00+0800</p><p><b>author</b>: <a href="PractitionerRole-ltc-practitioner-role-nurse-example.html">PractitionerRole Registered nurse</a></p><p><b>title</b>: 陳明慧女士照顧管理評估量表</p></div>
        </text>
        <status value="final"/>
        <type>
          <coding>
            <system value="http://loinc.org"/>
            <code value="11503-0"/>
            <display value="Medical records"/>
          </coding>
          <text value="照顧管理評估量表"/>
        </type>
        <subject>
          <reference value="http://ltc-ig.fhir.tw/Patient/ltc-patient-cms-chen-ming-hui-example"/>
        </subject>
        <date value="2024-01-15T14:30:00+08:00"/>
        <author>
          <reference value="PractitionerRole/ltc-practitioner-role-nurse-example"/>
        </author>
        <title value="陳明慧女士照顧管理評估量表"/>
        <section>
          <title value="A. 個案基本資料"/>
          <entry>
            <reference value="http://ltc-ig.fhir.tw/Patient/ltc-patient-cms-chen-ming-hui-example"/>
          </entry>
          <entry>
            <reference value="http://ltc-ig.fhir.tw/Condition/ltc-condition-disability-example"/>
          </entry>
          <entry>
            <reference value="http://ltc-ig.fhir.tw/Condition/ltc-condition-disability-type-limb-example"/>
          </entry>
        </section>
        <section>
          <title value="B. 照顧者基本資料"/>
          <entry>
            <reference value="http://ltc-ig.fhir.tw/RelatedPerson/ltc-related-person-primary-caregiver-example"/>
          </entry>
          <entry>
            <reference value="http://ltc-ig.fhir.tw/Condition/ltc-condition-disability-example"/>
          </entry>
          <entry>
            <reference value="http://ltc-ig.fhir.tw/Condition/ltc-condition-caregiver-family-example"/>
          </entry>
        </section>
        <section>
          <title value="C. 個案溝通能力"/>
          <entry>
            <reference value="http://ltc-ig.fhir.tw/QuestionnaireResponse/ltc-questionnaire-response-communication-example"/>
          </entry>
        </section>
        <section>
          <title value="D. 個案短期記憶力"/>
          <entry>
            <reference value="http://ltc-ig.fhir.tw/QuestionnaireResponse/ltc-questionnaire-response-memory-example"/>
          </entry>
        </section>
        <section>
          <title value="E. 個案日常活動功能量表 (ADLs)"/>
          <entry>
            <reference value="http://ltc-ig.fhir.tw/QuestionnaireResponse/ltc-questionnaire-response-adl-example"/>
          </entry>
        </section>
        <section>
          <title value="F. 個案工具性日常活動功能量表 (IADLs)"/>
          <entry>
            <reference value="http://ltc-ig.fhir.tw/QuestionnaireResponse/ltc-questionnaire-response-iadl-example"/>
          </entry>
        </section>
        <section>
          <title value="G. 特殊複雜照護需要"/>
          <entry>
            <reference value="http://ltc-ig.fhir.tw/QuestionnaireResponse/ltc-questionnaire-response-special-care-example"/>
          </entry>
        </section>
        <section>
          <title value="H. 居家環境與社會參與"/>
          <entry>
            <reference value="http://ltc-ig.fhir.tw/QuestionnaireResponse/ltc-questionnaire-response-society-example"/>
          </entry>
        </section>
        <section>
          <title value="I. 情緒及行為型態"/>
          <entry>
            <reference value="http://ltc-ig.fhir.tw/QuestionnaireResponse/ltc-questionnaire-response-mental-example"/>
          </entry>
        </section>
        <section>
          <title value="J. 主要照護者負荷"/>
          <entry>
            <reference value="http://ltc-ig.fhir.tw/QuestionnaireResponse/ltc-questionnaire-response-caregiver-load-example"/>
          </entry>
        </section>
        <section>
          <title value="K. 主要照護者工作與支持"/>
          <entry>
            <reference value="http://ltc-ig.fhir.tw/QuestionnaireResponse/ltc-questionnaire-response-caregiver-support-example"/>
          </entry>
        </section>
      </Composition>
    </resource>
  </entry>
  <entry>
    <fullUrl value="http://ltc-ig.fhir.tw/Patient/ltc-patient-cms-chen-ming-hui-example"/>
    <resource>
      <Patient>
        <id value="ltc-patient-cms-chen-ming-hui-example"/>
        <meta>
          <profile value="http://ltc-ig.fhir.tw/StructureDefinition/LTCPatientCMS"/>
        </meta>
        <text>
          <status value="generated"/><div xmlns="http://www.w3.org/1999/xhtml"><a name="Patient_ltc-patient-cms-chen-ming-hui-example"> </a><p class="res-header-id"><b>Generated Narrative: Patient ltc-patient-cms-chen-ming-hui-example</b></p><a name="ltc-patient-cms-chen-ming-hui-example"> </a><a name="hcltc-patient-cms-chen-ming-hui-example"> </a><div style="display: inline-block; background-color: #d9e0e7; padding: 6px; margin: 4px; border: 1px solid #8da1b4; border-radius: 5px; line-height: 60%"><p style="margin-bottom: 0px"/><p style="margin-bottom: 0px">Profile: <a href="StructureDefinition-LTCPatientCMS.html">照顧管理評估量表－個案基本資料</a></p></div><p style="border: 1px #661aff solid; background-color: #e6e6ff; padding: 10px;">陳明慧 Female, DoB: 1945-03-15 ( National Person Identifier: A123456789 (use: official, ))</p><hr/><table class="grid"><tr><td style="background-color: #f3f5da" title="Record is active">Active:</td><td>true</td><td style="background-color: #f3f5da" title="Known Marital status of Patient">Marital Status:</td><td colspan="3"><span title="Codes:{http://terminology.hl7.org/CodeSystem/v3-MaritalStatus W}">喪偶</span></td></tr><tr><td style="background-color: #f3f5da" title="Other Id (see the one above)">Other Id:</td><td colspan="3">Provider Number/R2024001 (use: official, )</td></tr><tr><td style="background-color: #f3f5da" title="Alternate names (see the one above)">Alt. Name:</td><td colspan="3">Chen Ming Hui(Official)</td></tr><tr><td style="background-color: #f3f5da" title="Ways to contact the Patient">Contact Detail</td><td colspan="3"><ul><li>ph: 0912345678(Mobile)</li><li>新北市中和區安康路二段123號3樓301室(home)</li><li>台北市大安區和平東路二段76號2樓(billing)</li></ul></td></tr><tr><td style="background-color: #f3f5da" title="Nominated Contact: Next-of-Kin">Next-of-Kin:</td><td colspan="3"><ul><li>陳志強</li><li>ph: 0987654321(Mobile)</li></ul></td></tr><tr><td style="background-color: #f3f5da" title="Patient Links">Links:</td><td colspan="3"><ul><li>Managing Organization: <a href="Organization-ltc-organization-example.html">Organization 新北市私立安康老人長期照顧中心（養護型）</a></li></ul></td></tr><tr><td style="background-color: #f3f5da" title="此 Extension 用以表述個案的身分別。"><a href="StructureDefinition-ExtPatientIdentity-TWLTC.html">個案身分別</a></td><td colspan="3"><span title="Codes:{http://ltc-ig.fhir.tw/CodeSystem/PatientIdentityCS-TWLTC 1}">一般戶</span></td></tr><tr><td style="background-color: #f3f5da" title="此 Extension 用以表述長照機構住民的教育程度。"><a href="StructureDefinition-ExtPatientEducationStatus-TWLTC.html">長照機構住民教育程度</a></td><td colspan="3"><span title="Codes:{http://ltc-ig.fhir.tw/CodeSystem/EducationStatusCS-TWLTC elementary}">國小</span></td></tr></table></div>
        </text>
        <extension url="http://ltc-ig.fhir.tw/StructureDefinition/ExtPatientEducationStatus-TWLTC">
          <valueCodeableConcept>
            <coding>
              <system value="http://ltc-ig.fhir.tw/CodeSystem/EducationStatusCS-TWLTC"/>
              <code value="elementary"/>
              <display value="國小"/>
            </coding>
          </valueCodeableConcept>
        </extension>
        <extension url="http://ltc-ig.fhir.tw/StructureDefinition/ExtPatientIdentity-TWLTC">
          <valueCodeableConcept>
            <coding>
              <system value="http://ltc-ig.fhir.tw/CodeSystem/PatientIdentityCS-TWLTC"/>
              <code value="1"/>
              <display value="一般戶"/>
            </coding>
          </valueCodeableConcept>
        </extension>
        <identifier>
          <use value="official"/>
          <type>
            <coding>
              <system value="http://terminology.hl7.org/CodeSystem/v2-0203"/>
              <code value="PRN"/>
              <display value="Provider Number"/>
            </coding>
          </type>
          <system value="http://www.ankang-ltc.tw"/>
          <value value="R2024001"/>
        </identifier>
        <identifier>
          <use value="official"/>
          <type>
            <coding>
              <system value="http://terminology.hl7.org/CodeSystem/v2-0203"/>
              <code value="NNxxx"/>
              <display value="National Person Identifier"/>
            </coding>
          </type>
          <system value="http://www.moi.gov.tw"/>
          <value value="A123456789"/>
        </identifier>
        <active value="true"/>
        <name>
          <use value="official"/>
          <text value="Chen Ming Hui"/>
        </name>
        <name>
          <use value="usual"/>
          <text value="陳明慧"/>
        </name>
        <telecom>
          <system value="phone"/>
          <value value="0912345678"/>
          <use value="mobile"/>
        </telecom>
        <gender value="female"/>
        <birthDate value="1945-03-15"/>
        <address>
          <use value="home"/>
          <text value="新北市中和區安康路二段123號3樓301室"/>
          <line value="安康路二段123號3樓301室"/>
          <city value="中和區"/>
          <state value="新北市"/>
          <postalCode value="23511"/>
          <country value="TW"/>
        </address>
        <address>
          <use value="billing"/>
          <text value="台北市大安區和平東路二段76號2樓"/>
          <line value="和平東路二段76號2樓"/>
          <city value="大安區"/>
          <state value="台北市"/>
          <postalCode value="10663"/>
          <country value="TW"/>
        </address>
        <maritalStatus>
          <coding>
            <system value="http://terminology.hl7.org/CodeSystem/v3-MaritalStatus"/>
            <code value="W"/>
            <display value="Widowed"/>
          </coding>
          <text value="喪偶"/>
        </maritalStatus>
        <contact>
          <relationship>
            <coding>
              <system value="http://terminology.hl7.org/CodeSystem/v2-0131"/>
              <code value="N"/>
              <display value="Next-of-Kin"/>
            </coding>
          </relationship>
          <name>
            <use value="usual"/>
            <text value="陳志強"/>
          </name>
          <telecom>
            <system value="phone"/>
            <value value="0987654321"/>
            <use value="mobile"/>
          </telecom>
        </contact>
        <managingOrganization>
          <reference value="Organization/ltc-organization-example"/>
        </managingOrganization>
      </Patient>
    </resource>
  </entry>
  <entry>
    <fullUrl value="http://ltc-ig.fhir.tw/Condition/ltc-condition-disability-example"/>
    <resource>
      <Condition>
        <id value="ltc-condition-disability-example"/>
        <meta>
          <profile value="http://ltc-ig.fhir.tw/StructureDefinition/LTCConditionDisability"/>
        </meta>
        <text>
          <status value="generated"/><div xmlns="http://www.w3.org/1999/xhtml"><a name="Condition_ltc-condition-disability-example"> </a><p class="res-header-id"><b>Generated Narrative: Condition ltc-condition-disability-example</b></p><a name="ltc-condition-disability-example"> </a><a name="hcltc-condition-disability-example"> </a><div style="display: inline-block; background-color: #d9e0e7; padding: 6px; margin: 4px; border: 1px solid #8da1b4; border-radius: 5px; line-height: 60%"><p style="margin-bottom: 0px"/><p style="margin-bottom: 0px">Profile: <a href="StructureDefinition-LTCConditionDisability.html">長期照顧－身心障礙手冊持有狀態</a></p></div><p><b>clinicalStatus</b>: <span title="Codes:{http://terminology.hl7.org/CodeSystem/condition-clinical active}">Active</span></p><p><b>verificationStatus</b>: <span title="Codes:{http://terminology.hl7.org/CodeSystem/condition-ver-status confirmed}">Confirmed</span></p><p><b>category</b>: <span title="Codes:{http://terminology.hl7.org/CodeSystem/condition-category problem-list-item}">Problem List Item</span></p><p><b>code</b>: <span title="Codes:{http://ltc-ig.fhir.tw/CodeSystem/ConditionDisabilityCS-TWLTC disability-card-holder}">持有身心障礙手冊</span></p><p><b>subject</b>: <a href="Patient-ltc-patient-chen-ming-hui.html">陳明慧 Female, DoB: 1945-03-15 ( National Person Identifier: A123456789 (use: official, ))</a></p><p><b>onset</b>: 2015-08-20</p><p><b>recorder</b>: <a href="PractitionerRole-ltc-practitioner-role-nurse-example.html">PractitionerRole Registered nurse</a></p><p><b>note</b>: @2024-01-15</p><blockquote><div><p>住民持有身心障礙手冊，類別為肢體障礙輕度</p>
</div></blockquote></div>
        </text>
        <clinicalStatus>
          <coding>
            <system value="http://terminology.hl7.org/CodeSystem/condition-clinical"/>
            <code value="active"/>
          </coding>
        </clinicalStatus>
        <verificationStatus>
          <coding>
            <system value="http://terminology.hl7.org/CodeSystem/condition-ver-status"/>
            <code value="confirmed"/>
          </coding>
        </verificationStatus>
        <category>
          <coding>
            <system value="http://terminology.hl7.org/CodeSystem/condition-category"/>
            <code value="problem-list-item"/>
            <display value="Problem List Item"/>
          </coding>
        </category>
        <code>
          <coding>
            <system value="http://ltc-ig.fhir.tw/CodeSystem/ConditionDisabilityCS-TWLTC"/>
            <code value="disability-card-holder"/>
            <display value="持有身心障礙手冊"/>
          </coding>
        </code>
        <subject>
          <reference value="Patient/ltc-patient-chen-ming-hui"/>
        </subject>
        <onsetDateTime value="2015-08-20"/>
        <recorder>
          <reference value="PractitionerRole/ltc-practitioner-role-nurse-example"/>
        </recorder>
        <note>
          <time value="2024-01-15"/>
          <text value="住民持有身心障礙手冊，類別為肢體障礙輕度"/>
        </note>
      </Condition>
    </resource>
  </entry>
  <entry>
    <fullUrl value="http://ltc-ig.fhir.tw/Condition/ltc-condition-disability-type-limb-example"/>
    <resource>
      <Condition>
        <id value="ltc-condition-disability-type-limb-example"/>
        <meta>
          <profile value="http://ltc-ig.fhir.tw/StructureDefinition/LTCConditionDisabilityType"/>
        </meta>
        <text>
          <status value="generated"/><div xmlns="http://www.w3.org/1999/xhtml"><a name="Condition_ltc-condition-disability-type-limb-example"> </a><p class="res-header-id"><b>Generated Narrative: Condition ltc-condition-disability-type-limb-example</b></p><a name="ltc-condition-disability-type-limb-example"> </a><a name="hcltc-condition-disability-type-limb-example"> </a><div style="display: inline-block; background-color: #d9e0e7; padding: 6px; margin: 4px; border: 1px solid #8da1b4; border-radius: 5px; line-height: 60%"><p style="margin-bottom: 0px"/><p style="margin-bottom: 0px">Profile: <a href="StructureDefinition-LTCConditionDisabilityType.html">長期照顧－身心障礙類型</a></p></div><p><b>clinicalStatus</b>: <span title="Codes:{http://terminology.hl7.org/CodeSystem/condition-clinical active}">Active</span></p><p><b>verificationStatus</b>: <span title="Codes:{http://terminology.hl7.org/CodeSystem/condition-ver-status confirmed}">Confirmed</span></p><p><b>category</b>: <span title="Codes:{http://terminology.hl7.org/CodeSystem/condition-category problem-list-item}">Problem List Item</span></p><p><b>severity</b>: <span title="Codes:{http://ltc-ig.fhir.tw/ValueSet/ConditionSeverityVS-TWLTC mild}">輕度</span></p><p><b>code</b>: <span title="Codes:{http://ltc-ig.fhir.tw/ValueSet/ConditionDisabilityTypeVS-TWLTC limb-disability}">肢體障礙</span></p><p><b>bodySite</b>: <span title="Codes:{http://snomed.info/sct 61685007}">Lower limb structure</span></p><p><b>subject</b>: <a href="Patient-ltc-patient-chen-ming-hui.html">陳明慧 Female, DoB: 1945-03-15 ( National Person Identifier: A123456789 (use: official, ))</a></p><p><b>onset</b>: 2015-08-20</p><p><b>recorder</b>: <a href="PractitionerRole-ltc-practitioner-role-nurse-example.html">PractitionerRole Registered nurse</a></p><p><b>note</b>: @2024-01-15</p><blockquote><div><p>左下肢功能輕度受限，影響行走功能，持有身心障礙手冊</p>
</div></blockquote></div>
        </text>
        <clinicalStatus>
          <coding>
            <system value="http://terminology.hl7.org/CodeSystem/condition-clinical"/>
            <code value="active"/>
          </coding>
        </clinicalStatus>
        <verificationStatus>
          <coding>
            <system value="http://terminology.hl7.org/CodeSystem/condition-ver-status"/>
            <code value="confirmed"/>
          </coding>
        </verificationStatus>
        <category>
          <coding>
            <system value="http://terminology.hl7.org/CodeSystem/condition-category"/>
            <code value="problem-list-item"/>
            <display value="Problem List Item"/>
          </coding>
        </category>
        <severity>
          <coding>
            <system value="http://ltc-ig.fhir.tw/ValueSet/ConditionSeverityVS-TWLTC"/>
            <code value="mild"/>
            <display value="輕度"/>
          </coding>
        </severity>
        <code>
          <coding>
            <system value="http://ltc-ig.fhir.tw/ValueSet/ConditionDisabilityTypeVS-TWLTC"/>
            <code value="limb-disability"/>
            <display value="肢體障礙"/>
          </coding>
        </code>
        <bodySite>
          <coding>
            <system value="http://snomed.info/sct"/>
            <code value="61685007"/>
            <display value="Lower limb structure"/>
          </coding>
        </bodySite>
        <subject>
          <reference value="Patient/ltc-patient-chen-ming-hui"/>
        </subject>
        <onsetDateTime value="2015-08-20"/>
        <recorder>
          <reference value="PractitionerRole/ltc-practitioner-role-nurse-example"/>
        </recorder>
        <note>
          <time value="2024-01-15"/>
          <text value="左下肢功能輕度受限，影響行走功能，持有身心障礙手冊"/>
        </note>
      </Condition>
    </resource>
  </entry>
  <entry>
    <fullUrl value="http://ltc-ig.fhir.tw/RelatedPerson/ltc-related-person-primary-caregiver-example"/>
    <resource>
      <RelatedPerson>
        <id value="ltc-related-person-primary-caregiver-example"/>
        <meta>
          <profile value="http://ltc-ig.fhir.tw/StructureDefinition/LTCRelatedPerson"/>
        </meta>
        <text>
          <status value="extensions"/><div xmlns="http://www.w3.org/1999/xhtml"><a name="RelatedPerson_ltc-related-person-primary-caregiver-example"> </a><p class="res-header-id"><b>Generated Narrative: RelatedPerson ltc-related-person-primary-caregiver-example</b></p><a name="ltc-related-person-primary-caregiver-example"> </a><a name="hcltc-related-person-primary-caregiver-example"> </a><div style="display: inline-block; background-color: #d9e0e7; padding: 6px; margin: 4px; border: 1px solid #8da1b4; border-radius: 5px; line-height: 60%"><p style="margin-bottom: 0px"/><p style="margin-bottom: 0px">Profile: <a href="StructureDefinition-LTCRelatedPerson.html">長期照顧－關係人</a></p></div><p><b>是否為主要照顧者</b>: true</p><p><b>active</b>: true</p><p><b>patient</b>: <a href="Patient-ltc-patient-chen-ming-hui.html">陳明慧 Female, DoB: 1945-03-15 ( National Person Identifier: A123456789 (use: official, ))</a></p><p><b>relationship</b>: <span title="Codes:{http://terminology.hl7.org/CodeSystem/v3-RoleCode CHILD}">child</span></p><p><b>name</b>: 陳志強</p><p><b>telecom</b>: ph: 0987654321(Mobile), ph: 02-27031234(Home)</p><p><b>gender</b>: Male</p><p><b>address</b>: 台北市大安區仁愛路三段55號8樓(home)</p></div>
        </text>
        <extension url="http://ltc-ig.fhir.tw/StructureDefinition/ExtRelatedPersonIsPrimary-TWLTC">
          <valueBoolean value="true"/>
        </extension>
        <active value="true"/>
        <patient>
          <reference value="Patient/ltc-patient-chen-ming-hui"/>
        </patient>
        <relationship>
          <coding>
            <system value="http://terminology.hl7.org/CodeSystem/v3-RoleCode"/>
            <code value="CHILD"/>
            <display value="child"/>
          </coding>
        </relationship>
        <name>
          <use value="usual"/>
          <text value="陳志強"/>
          <family value="陳"/>
          <given value="志強"/>
        </name>
        <telecom>
          <system value="phone"/>
          <value value="0987654321"/>
          <use value="mobile"/>
        </telecom>
        <telecom>
          <system value="phone"/>
          <value value="02-27031234"/>
          <use value="home"/>
        </telecom>
        <gender value="male"/>
        <address>
          <use value="home"/>
          <text value="台北市大安區仁愛路三段55號8樓"/>
          <line value="仁愛路三段55號8樓"/>
          <city value="大安區"/>
          <state value="台北市"/>
          <postalCode value="10657"/>
          <country value="TW"/>
        </address>
      </RelatedPerson>
    </resource>
  </entry>
  <entry>
    <fullUrl value="http://ltc-ig.fhir.tw/QuestionnaireResponse/ltc-questionnaire-response-communication-example"/>
    <resource>
      <QuestionnaireResponse>
        <id value="ltc-questionnaire-response-communication-example"/>
        <meta>
          <profile value="http://ltc-ig.fhir.tw/StructureDefinition/LTCQuestionnaireResponse"/>
        </meta>
        <text>
          <status value="generated"/><div xmlns="http://www.w3.org/1999/xhtml"><a name="QuestionnaireResponse_ltc-questionnaire-response-communication-example"> </a><p class="res-header-id"><b>Generated Narrative: QuestionnaireResponse ltc-questionnaire-response-communication-example</b></p><a name="ltc-questionnaire-response-communication-example"> </a><a name="hcltc-questionnaire-response-communication-example"> </a><div style="display: inline-block; background-color: #d9e0e7; padding: 6px; margin: 4px; border: 1px solid #8da1b4; border-radius: 5px; line-height: 60%"><p style="margin-bottom: 0px"/><p style="margin-bottom: 0px">Profile: <a href="StructureDefinition-LTCQuestionnaireResponse.html">長期照顧－問卷回覆</a></p></div><table border="1" cellpadding="0" cellspacing="0" style="border: 1px #F0F0F0 solid; font-size: 11px; font-family: verdana; vertical-align: top;"><tr style="border: 2px #F0F0F0 solid; font-size: 11px; font-family: verdana; vertical-align: top"><th style="vertical-align: top; text-align : var(--ig-left,left); background-color: white; border: 1px #F0F0F0 solid; padding:0px 4px 0px 4px; padding-top: 3px; padding-bottom: 3px" class="hierarchy"><a href="https://hl7.org/fhir/R4/formats.html#table" title="The linkID for the item">LinkID</a></th><th style="vertical-align: top; text-align : var(--ig-left,left); background-color: white; border: 1px #F0F0F0 solid; padding:0px 4px 0px 4px; padding-top: 3px; padding-bottom: 3px" class="hierarchy"><a href="https://hl7.org/fhir/R4/formats.html#table" title="Text for the item">Text</a></th><th style="vertical-align: top; text-align : var(--ig-left,left); background-color: white; border: 1px #F0F0F0 solid; padding:0px 4px 0px 4px; padding-top: 3px; padding-bottom: 3px" class="hierarchy"><a href="https://hl7.org/fhir/R4/formats.html#table" title="Minimum and Maximum # of times the item can appear in the instance">Definition</a></th><th style="vertical-align: top; text-align : var(--ig-left,left); background-color: white; border: 1px #F0F0F0 solid; padding:0px 4px 0px 4px; padding-top: 3px; padding-bottom: 3px" class="hierarchy"><a href="https://hl7.org/fhir/R4/formats.html#table" title="The type of the item">Answer</a><span style="float: right"><a href="https://hl7.org/fhir/R4/formats.html#table" title="Legend for this format"><img src="data:image/png;base64," alt="doco" style="background-color: inherit"/></a></span></th></tr><tr style="border: 1px #F0F0F0 solid; padding:0px; vertical-align: top; background-color: white"><td style="vertical-align: top; text-align : var(--ig-left,left); background-color: white; border: 1px #F0F0F0 solid; padding:0px 4px 0px 4px; white-space: nowrap; background-image: url(tbl_bck1.png)" class="hierarchy"><img src="tbl_spacer.png" alt="." style="background-color: inherit" class="hierarchy"/><img src="icon_q_root.gif" alt="." style="background-color: white; background-color: inherit" title="QuestionnaireResponseRoot" class="hierarchy"/> ltc-questionnaire-response-communication-example</td><td style="vertical-align: top; text-align : var(--ig-left,left); background-color: white; border: 1px #F0F0F0 solid; padding:0px 4px 0px 4px" class="hierarchy"></td><td style="vertical-align: top; text-align : var(--ig-left,left); background-color: white; border: 1px #F0F0F0 solid; padding:0px 4px 0px 4px" class="hierarchy"></td><td style="vertical-align: top; text-align : var(--ig-left,left); background-color: white; border: 1px #F0F0F0 solid; padding:0px 4px 0px 4px" class="hierarchy">Questionnaire:Questionnaire/ltc-questionnaire-communication</td></tr>
<tr style="border: 1px #F0F0F0 solid; padding:0px; vertical-align: top; background-color: #F7F7F7"><td style="vertical-align: top; text-align : var(--ig-left,left); background-color: #F7F7F7; border: 1px #F0F0F0 solid; padding:0px 4px 0px 4px; white-space: nowrap; background-image: url(tbl_bck10.png)" class="hierarchy"><img src="tbl_spacer.png" alt="." style="background-color: inherit" class="hierarchy"/><img src="tbl_vjoin.png" alt="." style="background-color: inherit" class="hierarchy"/><img src="icon-q-string.png" alt="." style="background-color: #F7F7F7; background-color: inherit" title="Item" class="hierarchy"/> communication-1</td><td style="vertical-align: top; text-align : var(--ig-left,left); background-color: #F7F7F7; border: 1px #F0F0F0 solid; padding:0px 4px 0px 4px" class="hierarchy">是否能表達基本需求</td><td style="vertical-align: top; text-align : var(--ig-left,left); background-color: #F7F7F7; border: 1px #F0F0F0 solid; padding:0px 4px 0px 4px" class="hierarchy"/><td style="vertical-align: top; text-align : var(--ig-left,left); background-color: #F7F7F7; border: 1px #F0F0F0 solid; padding:0px 4px 0px 4px" class="hierarchy">true</td></tr>
<tr style="border: 1px #F0F0F0 solid; padding:0px; vertical-align: top; background-color: white"><td style="vertical-align: top; text-align : var(--ig-left,left); background-color: white; border: 1px #F0F0F0 solid; padding:0px 4px 0px 4px; white-space: nowrap; background-image: url(tbl_bck00.png)" class="hierarchy"><img src="tbl_spacer.png" alt="." style="background-color: inherit" class="hierarchy"/><img src="tbl_vjoin_end.png" alt="." style="background-color: inherit" class="hierarchy"/><img src="icon-q-string.png" alt="." style="background-color: white; background-color: inherit" title="Item" class="hierarchy"/> communication-2</td><td style="vertical-align: top; text-align : var(--ig-left,left); background-color: white; border: 1px #F0F0F0 solid; padding:0px 4px 0px 4px" class="hierarchy">語言理解能力</td><td style="vertical-align: top; text-align : var(--ig-left,left); background-color: white; border: 1px #F0F0F0 solid; padding:0px 4px 0px 4px" class="hierarchy"/><td style="vertical-align: top; text-align : var(--ig-left,left); background-color: white; border: 1px #F0F0F0 solid; padding:0px 4px 0px 4px" class="hierarchy"><span><span>TempCodeCS good: 良好</span></span></td></tr>
<tr><td colspan="4" class="hierarchy"><br/><a href="https://hl7.org/fhir/R4/formats.html#table" title="Legend for this format"><img src="data:image/png;base64," alt="doco" style="background-color: inherit"/> Documentation for this format</a></td></tr></table></div>
        </text>
        <questionnaire value="Questionnaire/ltc-questionnaire-communication"/>
        <status value="completed"/>
        <subject>
          <reference value="Patient/ltc-patient-cms-example"/>
        </subject>
        <authored value="2024-09-15T10:30:00+08:00"/>
        <item>
          <linkId value="communication-1"/>
          <text value="是否能表達基本需求"/>
          <answer>
            <valueBoolean value="true"/>
          </answer>
        </item>
        <item>
          <linkId value="communication-2"/>
          <text value="語言理解能力"/>
          <answer>
            <valueCoding>
              <system value="http://ltc-ig.fhir.tw/CodeSystem/TempCodeCS"/>
              <code value="good"/>
              <display value="良好"/>
            </valueCoding>
          </answer>
        </item>
      </QuestionnaireResponse>
    </resource>
  </entry>
  <entry>
    <fullUrl value="http://ltc-ig.fhir.tw/QuestionnaireResponse/ltc-questionnaire-response-memory-example"/>
    <resource>
      <QuestionnaireResponse>
        <id value="ltc-questionnaire-response-memory-example"/>
        <meta>
          <profile value="http://ltc-ig.fhir.tw/StructureDefinition/LTCQuestionnaireResponse"/>
        </meta>
        <text>
          <status value="generated"/><div xmlns="http://www.w3.org/1999/xhtml"><a name="QuestionnaireResponse_ltc-questionnaire-response-memory-example"> </a><p class="res-header-id"><b>Generated Narrative: QuestionnaireResponse ltc-questionnaire-response-memory-example</b></p><a name="ltc-questionnaire-response-memory-example"> </a><a name="hcltc-questionnaire-response-memory-example"> </a><div style="display: inline-block; background-color: #d9e0e7; padding: 6px; margin: 4px; border: 1px solid #8da1b4; border-radius: 5px; line-height: 60%"><p style="margin-bottom: 0px"/><p style="margin-bottom: 0px">Profile: <a href="StructureDefinition-LTCQuestionnaireResponse.html">長期照顧－問卷回覆</a></p></div><table border="1" cellpadding="0" cellspacing="0" style="border: 1px #F0F0F0 solid; font-size: 11px; font-family: verdana; vertical-align: top;"><tr style="border: 2px #F0F0F0 solid; font-size: 11px; font-family: verdana; vertical-align: top"><th style="vertical-align: top; text-align : var(--ig-left,left); background-color: white; border: 1px #F0F0F0 solid; padding:0px 4px 0px 4px; padding-top: 3px; padding-bottom: 3px" class="hierarchy"><a href="https://hl7.org/fhir/R4/formats.html#table" title="The linkID for the item">LinkID</a></th><th style="vertical-align: top; text-align : var(--ig-left,left); background-color: white; border: 1px #F0F0F0 solid; padding:0px 4px 0px 4px; padding-top: 3px; padding-bottom: 3px" class="hierarchy"><a href="https://hl7.org/fhir/R4/formats.html#table" title="Text for the item">Text</a></th><th style="vertical-align: top; text-align : var(--ig-left,left); background-color: white; border: 1px #F0F0F0 solid; padding:0px 4px 0px 4px; padding-top: 3px; padding-bottom: 3px" class="hierarchy"><a href="https://hl7.org/fhir/R4/formats.html#table" title="Minimum and Maximum # of times the item can appear in the instance">Definition</a></th><th style="vertical-align: top; text-align : var(--ig-left,left); background-color: white; border: 1px #F0F0F0 solid; padding:0px 4px 0px 4px; padding-top: 3px; padding-bottom: 3px" class="hierarchy"><a href="https://hl7.org/fhir/R4/formats.html#table" title="The type of the item">Answer</a><span style="float: right"><a href="https://hl7.org/fhir/R4/formats.html#table" title="Legend for this format"><img src="data:image/png;base64," alt="doco" style="background-color: inherit"/></a></span></th></tr><tr style="border: 1px #F0F0F0 solid; padding:0px; vertical-align: top; background-color: white"><td style="vertical-align: top; text-align : var(--ig-left,left); background-color: white; border: 1px #F0F0F0 solid; padding:0px 4px 0px 4px; white-space: nowrap; background-image: url(tbl_bck1.png)" class="hierarchy"><img src="tbl_spacer.png" alt="." style="background-color: inherit" class="hierarchy"/><img src="icon_q_root.gif" alt="." style="background-color: white; background-color: inherit" title="QuestionnaireResponseRoot" class="hierarchy"/> ltc-questionnaire-response-memory-example</td><td style="vertical-align: top; text-align : var(--ig-left,left); background-color: white; border: 1px #F0F0F0 solid; padding:0px 4px 0px 4px" class="hierarchy"></td><td style="vertical-align: top; text-align : var(--ig-left,left); background-color: white; border: 1px #F0F0F0 solid; padding:0px 4px 0px 4px" class="hierarchy"></td><td style="vertical-align: top; text-align : var(--ig-left,left); background-color: white; border: 1px #F0F0F0 solid; padding:0px 4px 0px 4px" class="hierarchy">Questionnaire:Questionnaire/ltc-questionnaire-memory</td></tr>
<tr style="border: 1px #F0F0F0 solid; padding:0px; vertical-align: top; background-color: #F7F7F7"><td style="vertical-align: top; text-align : var(--ig-left,left); background-color: #F7F7F7; border: 1px #F0F0F0 solid; padding:0px 4px 0px 4px; white-space: nowrap; background-image: url(tbl_bck10.png)" class="hierarchy"><img src="tbl_spacer.png" alt="." style="background-color: inherit" class="hierarchy"/><img src="tbl_vjoin.png" alt="." style="background-color: inherit" class="hierarchy"/><img src="icon-q-string.png" alt="." style="background-color: #F7F7F7; background-color: inherit" title="Item" class="hierarchy"/> memory-1</td><td style="vertical-align: top; text-align : var(--ig-left,left); background-color: #F7F7F7; border: 1px #F0F0F0 solid; padding:0px 4px 0px 4px" class="hierarchy">能否記住剛說過的話</td><td style="vertical-align: top; text-align : var(--ig-left,left); background-color: #F7F7F7; border: 1px #F0F0F0 solid; padding:0px 4px 0px 4px" class="hierarchy"/><td style="vertical-align: top; text-align : var(--ig-left,left); background-color: #F7F7F7; border: 1px #F0F0F0 solid; padding:0px 4px 0px 4px" class="hierarchy">true</td></tr>
<tr style="border: 1px #F0F0F0 solid; padding:0px; vertical-align: top; background-color: white"><td style="vertical-align: top; text-align : var(--ig-left,left); background-color: white; border: 1px #F0F0F0 solid; padding:0px 4px 0px 4px; white-space: nowrap; background-image: url(tbl_bck00.png)" class="hierarchy"><img src="tbl_spacer.png" alt="." style="background-color: inherit" class="hierarchy"/><img src="tbl_vjoin_end.png" alt="." style="background-color: inherit" class="hierarchy"/><img src="icon-q-string.png" alt="." style="background-color: white; background-color: inherit" title="Item" class="hierarchy"/> memory-2</td><td style="vertical-align: top; text-align : var(--ig-left,left); background-color: white; border: 1px #F0F0F0 solid; padding:0px 4px 0px 4px" class="hierarchy">是否記得熟悉的人名</td><td style="vertical-align: top; text-align : var(--ig-left,left); background-color: white; border: 1px #F0F0F0 solid; padding:0px 4px 0px 4px" class="hierarchy"/><td style="vertical-align: top; text-align : var(--ig-left,left); background-color: white; border: 1px #F0F0F0 solid; padding:0px 4px 0px 4px" class="hierarchy">true</td></tr>
<tr><td colspan="4" class="hierarchy"><br/><a href="https://hl7.org/fhir/R4/formats.html#table" title="Legend for this format"><img src="data:image/png;base64," alt="doco" style="background-color: inherit"/> Documentation for this format</a></td></tr></table></div>
        </text>
        <questionnaire value="Questionnaire/ltc-questionnaire-memory"/>
        <status value="completed"/>
        <subject>
          <reference value="Patient/ltc-patient-cms-example"/>
        </subject>
        <authored value="2024-09-15T10:35:00+08:00"/>
        <item>
          <linkId value="memory-1"/>
          <text value="能否記住剛說過的話"/>
          <answer>
            <valueBoolean value="true"/>
          </answer>
        </item>
        <item>
          <linkId value="memory-2"/>
          <text value="是否記得熟悉的人名"/>
          <answer>
            <valueBoolean value="true"/>
          </answer>
        </item>
      </QuestionnaireResponse>
    </resource>
  </entry>
  <entry>
    <fullUrl value="http://ltc-ig.fhir.tw/QuestionnaireResponse/ltc-questionnaire-response-adl-example"/>
    <resource>
      <QuestionnaireResponse>
        <id value="ltc-questionnaire-response-adl-example"/>
        <meta>
          <profile value="http://ltc-ig.fhir.tw/StructureDefinition/LTCQuestionnaireResponse"/>
        </meta>
        <text>
          <status value="generated"/><div xmlns="http://www.w3.org/1999/xhtml"><a name="QuestionnaireResponse_ltc-questionnaire-response-adl-example"> </a><p class="res-header-id"><b>Generated Narrative: QuestionnaireResponse ltc-questionnaire-response-adl-example</b></p><a name="ltc-questionnaire-response-adl-example"> </a><a name="hcltc-questionnaire-response-adl-example"> </a><div style="display: inline-block; background-color: #d9e0e7; padding: 6px; margin: 4px; border: 1px solid #8da1b4; border-radius: 5px; line-height: 60%"><p style="margin-bottom: 0px"/><p style="margin-bottom: 0px">Profile: <a href="StructureDefinition-LTCQuestionnaireResponse.html">長期照顧－問卷回覆</a></p></div><table border="1" cellpadding="0" cellspacing="0" style="border: 1px #F0F0F0 solid; font-size: 11px; font-family: verdana; vertical-align: top;"><tr style="border: 2px #F0F0F0 solid; font-size: 11px; font-family: verdana; vertical-align: top"><th style="vertical-align: top; text-align : var(--ig-left,left); background-color: white; border: 1px #F0F0F0 solid; padding:0px 4px 0px 4px; padding-top: 3px; padding-bottom: 3px" class="hierarchy"><a href="https://hl7.org/fhir/R4/formats.html#table" title="The linkID for the item">LinkID</a></th><th style="vertical-align: top; text-align : var(--ig-left,left); background-color: white; border: 1px #F0F0F0 solid; padding:0px 4px 0px 4px; padding-top: 3px; padding-bottom: 3px" class="hierarchy"><a href="https://hl7.org/fhir/R4/formats.html#table" title="Text for the item">Text</a></th><th style="vertical-align: top; text-align : var(--ig-left,left); background-color: white; border: 1px #F0F0F0 solid; padding:0px 4px 0px 4px; padding-top: 3px; padding-bottom: 3px" class="hierarchy"><a href="https://hl7.org/fhir/R4/formats.html#table" title="Minimum and Maximum # of times the item can appear in the instance">Definition</a></th><th style="vertical-align: top; text-align : var(--ig-left,left); background-color: white; border: 1px #F0F0F0 solid; padding:0px 4px 0px 4px; padding-top: 3px; padding-bottom: 3px" class="hierarchy"><a href="https://hl7.org/fhir/R4/formats.html#table" title="The type of the item">Answer</a><span style="float: right"><a href="https://hl7.org/fhir/R4/formats.html#table" title="Legend for this format"><img src="data:image/png;base64," alt="doco" style="background-color: inherit"/></a></span></th></tr><tr style="border: 1px #F0F0F0 solid; padding:0px; vertical-align: top; background-color: white"><td style="vertical-align: top; text-align : var(--ig-left,left); background-color: white; border: 1px #F0F0F0 solid; padding:0px 4px 0px 4px; white-space: nowrap; background-image: url(tbl_bck1.png)" class="hierarchy"><img src="tbl_spacer.png" alt="." style="background-color: inherit" class="hierarchy"/><img src="icon_q_root.gif" alt="." style="background-color: white; background-color: inherit" title="QuestionnaireResponseRoot" class="hierarchy"/> ltc-questionnaire-response-adl-example</td><td style="vertical-align: top; text-align : var(--ig-left,left); background-color: white; border: 1px #F0F0F0 solid; padding:0px 4px 0px 4px" class="hierarchy"></td><td style="vertical-align: top; text-align : var(--ig-left,left); background-color: white; border: 1px #F0F0F0 solid; padding:0px 4px 0px 4px" class="hierarchy"></td><td style="vertical-align: top; text-align : var(--ig-left,left); background-color: white; border: 1px #F0F0F0 solid; padding:0px 4px 0px 4px" class="hierarchy">Questionnaire:<a href="Questionnaire-ltc-questionnaire-adl-assessment-example.html">日常生活能力評估量表</a></td></tr>
<tr style="border: 1px #F0F0F0 solid; padding:0px; vertical-align: top; background-color: #F7F7F7"><td style="vertical-align: top; text-align : var(--ig-left,left); background-color: #F7F7F7; border: 1px #F0F0F0 solid; padding:0px 4px 0px 4px; white-space: nowrap; background-image: url(tbl_bck10.png)" class="hierarchy"><img src="tbl_spacer.png" alt="." style="background-color: inherit" class="hierarchy"/><img src="tbl_vjoin.png" alt="." style="background-color: inherit" class="hierarchy"/><img src="icon-q-string.png" alt="." style="background-color: #F7F7F7; background-color: inherit" title="Item" class="hierarchy"/> adl-1</td><td style="vertical-align: top; text-align : var(--ig-left,left); background-color: #F7F7F7; border: 1px #F0F0F0 solid; padding:0px 4px 0px 4px" class="hierarchy">吃飯</td><td style="vertical-align: top; text-align : var(--ig-left,left); background-color: #F7F7F7; border: 1px #F0F0F0 solid; padding:0px 4px 0px 4px" class="hierarchy"/><td style="vertical-align: top; text-align : var(--ig-left,left); background-color: #F7F7F7; border: 1px #F0F0F0 solid; padding:0px 4px 0px 4px" class="hierarchy">需要部分協助</td></tr>
<tr style="border: 1px #F0F0F0 solid; padding:0px; vertical-align: top; background-color: white"><td style="vertical-align: top; text-align : var(--ig-left,left); background-color: white; border: 1px #F0F0F0 solid; padding:0px 4px 0px 4px; white-space: nowrap; background-image: url(tbl_bck10.png)" class="hierarchy"><img src="tbl_spacer.png" alt="." style="background-color: inherit" class="hierarchy"/><img src="tbl_vjoin.png" alt="." style="background-color: inherit" class="hierarchy"/><img src="icon-q-string.png" alt="." style="background-color: white; background-color: inherit" title="Item" class="hierarchy"/> adl-2</td><td style="vertical-align: top; text-align : var(--ig-left,left); background-color: white; border: 1px #F0F0F0 solid; padding:0px 4px 0px 4px" class="hierarchy">洗澡</td><td style="vertical-align: top; text-align : var(--ig-left,left); background-color: white; border: 1px #F0F0F0 solid; padding:0px 4px 0px 4px" class="hierarchy"/><td style="vertical-align: top; text-align : var(--ig-left,left); background-color: white; border: 1px #F0F0F0 solid; padding:0px 4px 0px 4px" class="hierarchy">完全需要協助</td></tr>
<tr style="border: 1px #F0F0F0 solid; padding:0px; vertical-align: top; background-color: #F7F7F7"><td style="vertical-align: top; text-align : var(--ig-left,left); background-color: #F7F7F7; border: 1px #F0F0F0 solid; padding:0px 4px 0px 4px; white-space: nowrap; background-image: url(tbl_bck00.png)" class="hierarchy"><img src="tbl_spacer.png" alt="." style="background-color: inherit" class="hierarchy"/><img src="tbl_vjoin_end.png" alt="." style="background-color: inherit" class="hierarchy"/><img src="icon-q-string.png" alt="." style="background-color: #F7F7F7; background-color: inherit" title="Item" class="hierarchy"/> adl-3</td><td style="vertical-align: top; text-align : var(--ig-left,left); background-color: #F7F7F7; border: 1px #F0F0F0 solid; padding:0px 4px 0px 4px" class="hierarchy">穿脫衣物</td><td style="vertical-align: top; text-align : var(--ig-left,left); background-color: #F7F7F7; border: 1px #F0F0F0 solid; padding:0px 4px 0px 4px" class="hierarchy"/><td style="vertical-align: top; text-align : var(--ig-left,left); background-color: #F7F7F7; border: 1px #F0F0F0 solid; padding:0px 4px 0px 4px" class="hierarchy">需要部分協助</td></tr>
<tr><td colspan="4" class="hierarchy"><br/><a href="https://hl7.org/fhir/R4/formats.html#table" title="Legend for this format"><img src="data:image/png;base64," alt="doco" style="background-color: inherit"/> Documentation for this format</a></td></tr></table></div>
        </text>
        <questionnaire value="http://ltc-ig.fhir.tw/Questionnaire/adl-assessment"/>
        <status value="completed"/>
        <subject>
          <reference value="Patient/ltc-patient-chen-ming-hui"/>
        </subject>
        <authored value="2024-01-15T10:30:00+08:00"/>
        <author>
          <reference value="PractitionerRole/ltc-practitioner-role-nurse-example"/>
        </author>
        <source>
          <reference value="RelatedPerson/ltc-related-person-primary-caregiver-example"/>
        </source>
        <item>
          <linkId value="adl-1"/>
          <text value="吃飯"/>
          <answer>
            <valueString value="需要部分協助"/>
          </answer>
        </item>
        <item>
          <linkId value="adl-2"/>
          <text value="洗澡"/>
          <answer>
            <valueString value="完全需要協助"/>
          </answer>
        </item>
        <item>
          <linkId value="adl-3"/>
          <text value="穿脫衣物"/>
          <answer>
            <valueString value="需要部分協助"/>
          </answer>
        </item>
      </QuestionnaireResponse>
    </resource>
  </entry>
  <entry>
    <fullUrl value="http://ltc-ig.fhir.tw/QuestionnaireResponse/ltc-questionnaire-response-iadl-example"/>
    <resource>
      <QuestionnaireResponse>
        <id value="ltc-questionnaire-response-iadl-example"/>
        <meta>
          <profile value="http://ltc-ig.fhir.tw/StructureDefinition/LTCQuestionnaireResponse"/>
        </meta>
        <text>
          <status value="generated"/><div xmlns="http://www.w3.org/1999/xhtml"><a name="QuestionnaireResponse_ltc-questionnaire-response-iadl-example"> </a><p class="res-header-id"><b>Generated Narrative: QuestionnaireResponse ltc-questionnaire-response-iadl-example</b></p><a name="ltc-questionnaire-response-iadl-example"> </a><a name="hcltc-questionnaire-response-iadl-example"> </a><div style="display: inline-block; background-color: #d9e0e7; padding: 6px; margin: 4px; border: 1px solid #8da1b4; border-radius: 5px; line-height: 60%"><p style="margin-bottom: 0px"/><p style="margin-bottom: 0px">Profile: <a href="StructureDefinition-LTCQuestionnaireResponse.html">長期照顧－問卷回覆</a></p></div><table border="1" cellpadding="0" cellspacing="0" style="border: 1px #F0F0F0 solid; font-size: 11px; font-family: verdana; vertical-align: top;"><tr style="border: 2px #F0F0F0 solid; font-size: 11px; font-family: verdana; vertical-align: top"><th style="vertical-align: top; text-align : var(--ig-left,left); background-color: white; border: 1px #F0F0F0 solid; padding:0px 4px 0px 4px; padding-top: 3px; padding-bottom: 3px" class="hierarchy"><a href="https://hl7.org/fhir/R4/formats.html#table" title="The linkID for the item">LinkID</a></th><th style="vertical-align: top; text-align : var(--ig-left,left); background-color: white; border: 1px #F0F0F0 solid; padding:0px 4px 0px 4px; padding-top: 3px; padding-bottom: 3px" class="hierarchy"><a href="https://hl7.org/fhir/R4/formats.html#table" title="Text for the item">Text</a></th><th style="vertical-align: top; text-align : var(--ig-left,left); background-color: white; border: 1px #F0F0F0 solid; padding:0px 4px 0px 4px; padding-top: 3px; padding-bottom: 3px" class="hierarchy"><a href="https://hl7.org/fhir/R4/formats.html#table" title="Minimum and Maximum # of times the item can appear in the instance">Definition</a></th><th style="vertical-align: top; text-align : var(--ig-left,left); background-color: white; border: 1px #F0F0F0 solid; padding:0px 4px 0px 4px; padding-top: 3px; padding-bottom: 3px" class="hierarchy"><a href="https://hl7.org/fhir/R4/formats.html#table" title="The type of the item">Answer</a><span style="float: right"><a href="https://hl7.org/fhir/R4/formats.html#table" title="Legend for this format"><img src="data:image/png;base64," alt="doco" style="background-color: inherit"/></a></span></th></tr><tr style="border: 1px #F0F0F0 solid; padding:0px; vertical-align: top; background-color: white"><td style="vertical-align: top; text-align : var(--ig-left,left); background-color: white; border: 1px #F0F0F0 solid; padding:0px 4px 0px 4px; white-space: nowrap; background-image: url(tbl_bck1.png)" class="hierarchy"><img src="tbl_spacer.png" alt="." style="background-color: inherit" class="hierarchy"/><img src="icon_q_root.gif" alt="." style="background-color: white; background-color: inherit" title="QuestionnaireResponseRoot" class="hierarchy"/> ltc-questionnaire-response-iadl-example</td><td style="vertical-align: top; text-align : var(--ig-left,left); background-color: white; border: 1px #F0F0F0 solid; padding:0px 4px 0px 4px" class="hierarchy"></td><td style="vertical-align: top; text-align : var(--ig-left,left); background-color: white; border: 1px #F0F0F0 solid; padding:0px 4px 0px 4px" class="hierarchy"></td><td style="vertical-align: top; text-align : var(--ig-left,left); background-color: white; border: 1px #F0F0F0 solid; padding:0px 4px 0px 4px" class="hierarchy">Questionnaire:Questionnaire/ltc-questionnaire-iadl</td></tr>
<tr style="border: 1px #F0F0F0 solid; padding:0px; vertical-align: top; background-color: #F7F7F7"><td style="vertical-align: top; text-align : var(--ig-left,left); background-color: #F7F7F7; border: 1px #F0F0F0 solid; padding:0px 4px 0px 4px; white-space: nowrap; background-image: url(tbl_bck10.png)" class="hierarchy"><img src="tbl_spacer.png" alt="." style="background-color: inherit" class="hierarchy"/><img src="tbl_vjoin.png" alt="." style="background-color: inherit" class="hierarchy"/><img src="icon-q-string.png" alt="." style="background-color: #F7F7F7; background-color: inherit" title="Item" class="hierarchy"/> iadl-1</td><td style="vertical-align: top; text-align : var(--ig-left,left); background-color: #F7F7F7; border: 1px #F0F0F0 solid; padding:0px 4px 0px 4px" class="hierarchy">購物能力</td><td style="vertical-align: top; text-align : var(--ig-left,left); background-color: #F7F7F7; border: 1px #F0F0F0 solid; padding:0px 4px 0px 4px" class="hierarchy"/><td style="vertical-align: top; text-align : var(--ig-left,left); background-color: #F7F7F7; border: 1px #F0F0F0 solid; padding:0px 4px 0px 4px" class="hierarchy"><span><span>TempCodeCS independent: 獨立</span></span></td></tr>
<tr style="border: 1px #F0F0F0 solid; padding:0px; vertical-align: top; background-color: white"><td style="vertical-align: top; text-align : var(--ig-left,left); background-color: white; border: 1px #F0F0F0 solid; padding:0px 4px 0px 4px; white-space: nowrap; background-image: url(tbl_bck00.png)" class="hierarchy"><img src="tbl_spacer.png" alt="." style="background-color: inherit" class="hierarchy"/><img src="tbl_vjoin_end.png" alt="." style="background-color: inherit" class="hierarchy"/><img src="icon-q-string.png" alt="." style="background-color: white; background-color: inherit" title="Item" class="hierarchy"/> iadl-2</td><td style="vertical-align: top; text-align : var(--ig-left,left); background-color: white; border: 1px #F0F0F0 solid; padding:0px 4px 0px 4px" class="hierarchy">使用電話能力</td><td style="vertical-align: top; text-align : var(--ig-left,left); background-color: white; border: 1px #F0F0F0 solid; padding:0px 4px 0px 4px" class="hierarchy"/><td style="vertical-align: top; text-align : var(--ig-left,left); background-color: white; border: 1px #F0F0F0 solid; padding:0px 4px 0px 4px" class="hierarchy"><span><span>TempCodeCS assisted: 需協助</span></span></td></tr>
<tr><td colspan="4" class="hierarchy"><br/><a href="https://hl7.org/fhir/R4/formats.html#table" title="Legend for this format"><img src="data:image/png;base64," alt="doco" style="background-color: inherit"/> Documentation for this format</a></td></tr></table></div>
        </text>
        <questionnaire value="Questionnaire/ltc-questionnaire-iadl"/>
        <status value="completed"/>
        <subject>
          <reference value="Patient/ltc-patient-cms-example"/>
        </subject>
        <authored value="2024-09-15T10:40:00+08:00"/>
        <item>
          <linkId value="iadl-1"/>
          <text value="購物能力"/>
          <answer>
            <valueCoding>
              <system value="http://ltc-ig.fhir.tw/CodeSystem/TempCodeCS"/>
              <code value="independent"/>
              <display value="獨立"/>
            </valueCoding>
          </answer>
        </item>
        <item>
          <linkId value="iadl-2"/>
          <text value="使用電話能力"/>
          <answer>
            <valueCoding>
              <system value="http://ltc-ig.fhir.tw/CodeSystem/TempCodeCS"/>
              <code value="assisted"/>
              <display value="需協助"/>
            </valueCoding>
          </answer>
        </item>
      </QuestionnaireResponse>
    </resource>
  </entry>
  <entry>
    <fullUrl value="http://ltc-ig.fhir.tw/QuestionnaireResponse/ltc-questionnaire-response-special-care-example"/>
    <resource>
      <QuestionnaireResponse>
        <id value="ltc-questionnaire-response-special-care-example"/>
        <meta>
          <profile value="http://ltc-ig.fhir.tw/StructureDefinition/LTCQuestionnaireResponse"/>
        </meta>
        <text>
          <status value="generated"/><div xmlns="http://www.w3.org/1999/xhtml"><a name="QuestionnaireResponse_ltc-questionnaire-response-special-care-example"> </a><p class="res-header-id"><b>Generated Narrative: QuestionnaireResponse ltc-questionnaire-response-special-care-example</b></p><a name="ltc-questionnaire-response-special-care-example"> </a><a name="hcltc-questionnaire-response-special-care-example"> </a><div style="display: inline-block; background-color: #d9e0e7; padding: 6px; margin: 4px; border: 1px solid #8da1b4; border-radius: 5px; line-height: 60%"><p style="margin-bottom: 0px"/><p style="margin-bottom: 0px">Profile: <a href="StructureDefinition-LTCQuestionnaireResponse.html">長期照顧－問卷回覆</a></p></div><table border="1" cellpadding="0" cellspacing="0" style="border: 1px #F0F0F0 solid; font-size: 11px; font-family: verdana; vertical-align: top;"><tr style="border: 2px #F0F0F0 solid; font-size: 11px; font-family: verdana; vertical-align: top"><th style="vertical-align: top; text-align : var(--ig-left,left); background-color: white; border: 1px #F0F0F0 solid; padding:0px 4px 0px 4px; padding-top: 3px; padding-bottom: 3px" class="hierarchy"><a href="https://hl7.org/fhir/R4/formats.html#table" title="The linkID for the item">LinkID</a></th><th style="vertical-align: top; text-align : var(--ig-left,left); background-color: white; border: 1px #F0F0F0 solid; padding:0px 4px 0px 4px; padding-top: 3px; padding-bottom: 3px" class="hierarchy"><a href="https://hl7.org/fhir/R4/formats.html#table" title="Text for the item">Text</a></th><th style="vertical-align: top; text-align : var(--ig-left,left); background-color: white; border: 1px #F0F0F0 solid; padding:0px 4px 0px 4px; padding-top: 3px; padding-bottom: 3px" class="hierarchy"><a href="https://hl7.org/fhir/R4/formats.html#table" title="Minimum and Maximum # of times the item can appear in the instance">Definition</a></th><th style="vertical-align: top; text-align : var(--ig-left,left); background-color: white; border: 1px #F0F0F0 solid; padding:0px 4px 0px 4px; padding-top: 3px; padding-bottom: 3px" class="hierarchy"><a href="https://hl7.org/fhir/R4/formats.html#table" title="The type of the item">Answer</a><span style="float: right"><a href="https://hl7.org/fhir/R4/formats.html#table" title="Legend for this format"><img src="data:image/png;base64," alt="doco" style="background-color: inherit"/></a></span></th></tr><tr style="border: 1px #F0F0F0 solid; padding:0px; vertical-align: top; background-color: white"><td style="vertical-align: top; text-align : var(--ig-left,left); background-color: white; border: 1px #F0F0F0 solid; padding:0px 4px 0px 4px; white-space: nowrap; background-image: url(tbl_bck1.png)" class="hierarchy"><img src="tbl_spacer.png" alt="." style="background-color: inherit" class="hierarchy"/><img src="icon_q_root.gif" alt="." style="background-color: white; background-color: inherit" title="QuestionnaireResponseRoot" class="hierarchy"/> ltc-questionnaire-response-special-care-example</td><td style="vertical-align: top; text-align : var(--ig-left,left); background-color: white; border: 1px #F0F0F0 solid; padding:0px 4px 0px 4px" class="hierarchy"></td><td style="vertical-align: top; text-align : var(--ig-left,left); background-color: white; border: 1px #F0F0F0 solid; padding:0px 4px 0px 4px" class="hierarchy"></td><td style="vertical-align: top; text-align : var(--ig-left,left); background-color: white; border: 1px #F0F0F0 solid; padding:0px 4px 0px 4px" class="hierarchy">Questionnaire:Questionnaire/ltc-questionnaire-special-care</td></tr>
<tr style="border: 1px #F0F0F0 solid; padding:0px; vertical-align: top; background-color: #F7F7F7"><td style="vertical-align: top; text-align : var(--ig-left,left); background-color: #F7F7F7; border: 1px #F0F0F0 solid; padding:0px 4px 0px 4px; white-space: nowrap; background-image: url(tbl_bck10.png)" class="hierarchy"><img src="tbl_spacer.png" alt="." style="background-color: inherit" class="hierarchy"/><img src="tbl_vjoin.png" alt="." style="background-color: inherit" class="hierarchy"/><img src="icon-q-string.png" alt="." style="background-color: #F7F7F7; background-color: inherit" title="Item" class="hierarchy"/> special-care-1</td><td style="vertical-align: top; text-align : var(--ig-left,left); background-color: #F7F7F7; border: 1px #F0F0F0 solid; padding:0px 4px 0px 4px" class="hierarchy">是否需要特殊醫療照護</td><td style="vertical-align: top; text-align : var(--ig-left,left); background-color: #F7F7F7; border: 1px #F0F0F0 solid; padding:0px 4px 0px 4px" class="hierarchy"/><td style="vertical-align: top; text-align : var(--ig-left,left); background-color: #F7F7F7; border: 1px #F0F0F0 solid; padding:0px 4px 0px 4px" class="hierarchy">false</td></tr>
<tr style="border: 1px #F0F0F0 solid; padding:0px; vertical-align: top; background-color: white"><td style="vertical-align: top; text-align : var(--ig-left,left); background-color: white; border: 1px #F0F0F0 solid; padding:0px 4px 0px 4px; white-space: nowrap; background-image: url(tbl_bck00.png)" class="hierarchy"><img src="tbl_spacer.png" alt="." style="background-color: inherit" class="hierarchy"/><img src="tbl_vjoin_end.png" alt="." style="background-color: inherit" class="hierarchy"/><img src="icon-q-string.png" alt="." style="background-color: white; background-color: inherit" title="Item" class="hierarchy"/> special-care-2</td><td style="vertical-align: top; text-align : var(--ig-left,left); background-color: white; border: 1px #F0F0F0 solid; padding:0px 4px 0px 4px" class="hierarchy">是否需要復健治療</td><td style="vertical-align: top; text-align : var(--ig-left,left); background-color: white; border: 1px #F0F0F0 solid; padding:0px 4px 0px 4px" class="hierarchy"/><td style="vertical-align: top; text-align : var(--ig-left,left); background-color: white; border: 1px #F0F0F0 solid; padding:0px 4px 0px 4px" class="hierarchy">true</td></tr>
<tr><td colspan="4" class="hierarchy"><br/><a href="https://hl7.org/fhir/R4/formats.html#table" title="Legend for this format"><img src="data:image/png;base64," alt="doco" style="background-color: inherit"/> Documentation for this format</a></td></tr></table></div>
        </text>
        <questionnaire value="Questionnaire/ltc-questionnaire-special-care"/>
        <status value="completed"/>
        <subject>
          <reference value="Patient/ltc-patient-cms-example"/>
        </subject>
        <authored value="2024-09-15T10:45:00+08:00"/>
        <item>
          <linkId value="special-care-1"/>
          <text value="是否需要特殊醫療照護"/>
          <answer>
            <valueBoolean value="false"/>
          </answer>
        </item>
        <item>
          <linkId value="special-care-2"/>
          <text value="是否需要復健治療"/>
          <answer>
            <valueBoolean value="true"/>
          </answer>
        </item>
      </QuestionnaireResponse>
    </resource>
  </entry>
  <entry>
    <fullUrl value="http://ltc-ig.fhir.tw/QuestionnaireResponse/ltc-questionnaire-response-society-example"/>
    <resource>
      <QuestionnaireResponse>
        <id value="ltc-questionnaire-response-society-example"/>
        <meta>
          <profile value="http://ltc-ig.fhir.tw/StructureDefinition/LTCQuestionnaireResponse"/>
        </meta>
        <text>
          <status value="generated"/><div xmlns="http://www.w3.org/1999/xhtml"><a name="QuestionnaireResponse_ltc-questionnaire-response-society-example"> </a><p class="res-header-id"><b>Generated Narrative: QuestionnaireResponse ltc-questionnaire-response-society-example</b></p><a name="ltc-questionnaire-response-society-example"> </a><a name="hcltc-questionnaire-response-society-example"> </a><div style="display: inline-block; background-color: #d9e0e7; padding: 6px; margin: 4px; border: 1px solid #8da1b4; border-radius: 5px; line-height: 60%"><p style="margin-bottom: 0px"/><p style="margin-bottom: 0px">Profile: <a href="StructureDefinition-LTCQuestionnaireResponse.html">長期照顧－問卷回覆</a></p></div><table border="1" cellpadding="0" cellspacing="0" style="border: 1px #F0F0F0 solid; font-size: 11px; font-family: verdana; vertical-align: top;"><tr style="border: 2px #F0F0F0 solid; font-size: 11px; font-family: verdana; vertical-align: top"><th style="vertical-align: top; text-align : var(--ig-left,left); background-color: white; border: 1px #F0F0F0 solid; padding:0px 4px 0px 4px; padding-top: 3px; padding-bottom: 3px" class="hierarchy"><a href="https://hl7.org/fhir/R4/formats.html#table" title="The linkID for the item">LinkID</a></th><th style="vertical-align: top; text-align : var(--ig-left,left); background-color: white; border: 1px #F0F0F0 solid; padding:0px 4px 0px 4px; padding-top: 3px; padding-bottom: 3px" class="hierarchy"><a href="https://hl7.org/fhir/R4/formats.html#table" title="Text for the item">Text</a></th><th style="vertical-align: top; text-align : var(--ig-left,left); background-color: white; border: 1px #F0F0F0 solid; padding:0px 4px 0px 4px; padding-top: 3px; padding-bottom: 3px" class="hierarchy"><a href="https://hl7.org/fhir/R4/formats.html#table" title="Minimum and Maximum # of times the item can appear in the instance">Definition</a></th><th style="vertical-align: top; text-align : var(--ig-left,left); background-color: white; border: 1px #F0F0F0 solid; padding:0px 4px 0px 4px; padding-top: 3px; padding-bottom: 3px" class="hierarchy"><a href="https://hl7.org/fhir/R4/formats.html#table" title="The type of the item">Answer</a><span style="float: right"><a href="https://hl7.org/fhir/R4/formats.html#table" title="Legend for this format"><img src="data:image/png;base64," alt="doco" style="background-color: inherit"/></a></span></th></tr><tr style="border: 1px #F0F0F0 solid; padding:0px; vertical-align: top; background-color: white"><td style="vertical-align: top; text-align : var(--ig-left,left); background-color: white; border: 1px #F0F0F0 solid; padding:0px 4px 0px 4px; white-space: nowrap; background-image: url(tbl_bck1.png)" class="hierarchy"><img src="tbl_spacer.png" alt="." style="background-color: inherit" class="hierarchy"/><img src="icon_q_root.gif" alt="." style="background-color: white; background-color: inherit" title="QuestionnaireResponseRoot" class="hierarchy"/> ltc-questionnaire-response-society-example</td><td style="vertical-align: top; text-align : var(--ig-left,left); background-color: white; border: 1px #F0F0F0 solid; padding:0px 4px 0px 4px" class="hierarchy"></td><td style="vertical-align: top; text-align : var(--ig-left,left); background-color: white; border: 1px #F0F0F0 solid; padding:0px 4px 0px 4px" class="hierarchy"></td><td style="vertical-align: top; text-align : var(--ig-left,left); background-color: white; border: 1px #F0F0F0 solid; padding:0px 4px 0px 4px" class="hierarchy">Questionnaire:Questionnaire/ltc-questionnaire-society</td></tr>
<tr style="border: 1px #F0F0F0 solid; padding:0px; vertical-align: top; background-color: #F7F7F7"><td style="vertical-align: top; text-align : var(--ig-left,left); background-color: #F7F7F7; border: 1px #F0F0F0 solid; padding:0px 4px 0px 4px; white-space: nowrap; background-image: url(tbl_bck10.png)" class="hierarchy"><img src="tbl_spacer.png" alt="." style="background-color: inherit" class="hierarchy"/><img src="tbl_vjoin.png" alt="." style="background-color: inherit" class="hierarchy"/><img src="icon-q-string.png" alt="." style="background-color: #F7F7F7; background-color: inherit" title="Item" class="hierarchy"/> society-1</td><td style="vertical-align: top; text-align : var(--ig-left,left); background-color: #F7F7F7; border: 1px #F0F0F0 solid; padding:0px 4px 0px 4px" class="hierarchy">居住環境是否安全</td><td style="vertical-align: top; text-align : var(--ig-left,left); background-color: #F7F7F7; border: 1px #F0F0F0 solid; padding:0px 4px 0px 4px" class="hierarchy"/><td style="vertical-align: top; text-align : var(--ig-left,left); background-color: #F7F7F7; border: 1px #F0F0F0 solid; padding:0px 4px 0px 4px" class="hierarchy">true</td></tr>
<tr style="border: 1px #F0F0F0 solid; padding:0px; vertical-align: top; background-color: white"><td style="vertical-align: top; text-align : var(--ig-left,left); background-color: white; border: 1px #F0F0F0 solid; padding:0px 4px 0px 4px; white-space: nowrap; background-image: url(tbl_bck00.png)" class="hierarchy"><img src="tbl_spacer.png" alt="." style="background-color: inherit" class="hierarchy"/><img src="tbl_vjoin_end.png" alt="." style="background-color: inherit" class="hierarchy"/><img src="icon-q-string.png" alt="." style="background-color: white; background-color: inherit" title="Item" class="hierarchy"/> society-2</td><td style="vertical-align: top; text-align : var(--ig-left,left); background-color: white; border: 1px #F0F0F0 solid; padding:0px 4px 0px 4px" class="hierarchy">社會參與程度</td><td style="vertical-align: top; text-align : var(--ig-left,left); background-color: white; border: 1px #F0F0F0 solid; padding:0px 4px 0px 4px" class="hierarchy"/><td style="vertical-align: top; text-align : var(--ig-left,left); background-color: white; border: 1px #F0F0F0 solid; padding:0px 4px 0px 4px" class="hierarchy"><span><span>TempCodeCS moderate: 中等</span></span></td></tr>
<tr><td colspan="4" class="hierarchy"><br/><a href="https://hl7.org/fhir/R4/formats.html#table" title="Legend for this format"><img src="data:image/png;base64," alt="doco" style="background-color: inherit"/> Documentation for this format</a></td></tr></table></div>
        </text>
        <questionnaire value="Questionnaire/ltc-questionnaire-society"/>
        <status value="completed"/>
        <subject>
          <reference value="Patient/ltc-patient-cms-example"/>
        </subject>
        <authored value="2024-09-15T10:50:00+08:00"/>
        <item>
          <linkId value="society-1"/>
          <text value="居住環境是否安全"/>
          <answer>
            <valueBoolean value="true"/>
          </answer>
        </item>
        <item>
          <linkId value="society-2"/>
          <text value="社會參與程度"/>
          <answer>
            <valueCoding>
              <system value="http://ltc-ig.fhir.tw/CodeSystem/TempCodeCS"/>
              <code value="moderate"/>
              <display value="中等"/>
            </valueCoding>
          </answer>
        </item>
      </QuestionnaireResponse>
    </resource>
  </entry>
  <entry>
    <fullUrl value="http://ltc-ig.fhir.tw/QuestionnaireResponse/ltc-questionnaire-response-mental-example"/>
    <resource>
      <QuestionnaireResponse>
        <id value="ltc-questionnaire-response-mental-example"/>
        <meta>
          <profile value="http://ltc-ig.fhir.tw/StructureDefinition/LTCQuestionnaireResponse"/>
        </meta>
        <text>
          <status value="generated"/><div xmlns="http://www.w3.org/1999/xhtml"><a name="QuestionnaireResponse_ltc-questionnaire-response-mental-example"> </a><p class="res-header-id"><b>Generated Narrative: QuestionnaireResponse ltc-questionnaire-response-mental-example</b></p><a name="ltc-questionnaire-response-mental-example"> </a><a name="hcltc-questionnaire-response-mental-example"> </a><div style="display: inline-block; background-color: #d9e0e7; padding: 6px; margin: 4px; border: 1px solid #8da1b4; border-radius: 5px; line-height: 60%"><p style="margin-bottom: 0px"/><p style="margin-bottom: 0px">Profile: <a href="StructureDefinition-LTCQuestionnaireResponse.html">長期照顧－問卷回覆</a></p></div><table border="1" cellpadding="0" cellspacing="0" style="border: 1px #F0F0F0 solid; font-size: 11px; font-family: verdana; vertical-align: top;"><tr style="border: 2px #F0F0F0 solid; font-size: 11px; font-family: verdana; vertical-align: top"><th style="vertical-align: top; text-align : var(--ig-left,left); background-color: white; border: 1px #F0F0F0 solid; padding:0px 4px 0px 4px; padding-top: 3px; padding-bottom: 3px" class="hierarchy"><a href="https://hl7.org/fhir/R4/formats.html#table" title="The linkID for the item">LinkID</a></th><th style="vertical-align: top; text-align : var(--ig-left,left); background-color: white; border: 1px #F0F0F0 solid; padding:0px 4px 0px 4px; padding-top: 3px; padding-bottom: 3px" class="hierarchy"><a href="https://hl7.org/fhir/R4/formats.html#table" title="Text for the item">Text</a></th><th style="vertical-align: top; text-align : var(--ig-left,left); background-color: white; border: 1px #F0F0F0 solid; padding:0px 4px 0px 4px; padding-top: 3px; padding-bottom: 3px" class="hierarchy"><a href="https://hl7.org/fhir/R4/formats.html#table" title="Minimum and Maximum # of times the item can appear in the instance">Definition</a></th><th style="vertical-align: top; text-align : var(--ig-left,left); background-color: white; border: 1px #F0F0F0 solid; padding:0px 4px 0px 4px; padding-top: 3px; padding-bottom: 3px" class="hierarchy"><a href="https://hl7.org/fhir/R4/formats.html#table" title="The type of the item">Answer</a><span style="float: right"><a href="https://hl7.org/fhir/R4/formats.html#table" title="Legend for this format"><img src="data:image/png;base64," alt="doco" style="background-color: inherit"/></a></span></th></tr><tr style="border: 1px #F0F0F0 solid; padding:0px; vertical-align: top; background-color: white"><td style="vertical-align: top; text-align : var(--ig-left,left); background-color: white; border: 1px #F0F0F0 solid; padding:0px 4px 0px 4px; white-space: nowrap; background-image: url(tbl_bck1.png)" class="hierarchy"><img src="tbl_spacer.png" alt="." style="background-color: inherit" class="hierarchy"/><img src="icon_q_root.gif" alt="." style="background-color: white; background-color: inherit" title="QuestionnaireResponseRoot" class="hierarchy"/> ltc-questionnaire-response-mental-example</td><td style="vertical-align: top; text-align : var(--ig-left,left); background-color: white; border: 1px #F0F0F0 solid; padding:0px 4px 0px 4px" class="hierarchy"></td><td style="vertical-align: top; text-align : var(--ig-left,left); background-color: white; border: 1px #F0F0F0 solid; padding:0px 4px 0px 4px" class="hierarchy"></td><td style="vertical-align: top; text-align : var(--ig-left,left); background-color: white; border: 1px #F0F0F0 solid; padding:0px 4px 0px 4px" class="hierarchy">Questionnaire:Questionnaire/ltc-questionnaire-mental</td></tr>
<tr style="border: 1px #F0F0F0 solid; padding:0px; vertical-align: top; background-color: #F7F7F7"><td style="vertical-align: top; text-align : var(--ig-left,left); background-color: #F7F7F7; border: 1px #F0F0F0 solid; padding:0px 4px 0px 4px; white-space: nowrap; background-image: url(tbl_bck10.png)" class="hierarchy"><img src="tbl_spacer.png" alt="." style="background-color: inherit" class="hierarchy"/><img src="tbl_vjoin.png" alt="." style="background-color: inherit" class="hierarchy"/><img src="icon-q-string.png" alt="." style="background-color: #F7F7F7; background-color: inherit" title="Item" class="hierarchy"/> mental-1</td><td style="vertical-align: top; text-align : var(--ig-left,left); background-color: #F7F7F7; border: 1px #F0F0F0 solid; padding:0px 4px 0px 4px" class="hierarchy">認知功能評估</td><td style="vertical-align: top; text-align : var(--ig-left,left); background-color: #F7F7F7; border: 1px #F0F0F0 solid; padding:0px 4px 0px 4px" class="hierarchy"/><td style="vertical-align: top; text-align : var(--ig-left,left); background-color: #F7F7F7; border: 1px #F0F0F0 solid; padding:0px 4px 0px 4px" class="hierarchy"><span><span>TempCodeCS mild-impairment: 輕度損害</span></span></td></tr>
<tr style="border: 1px #F0F0F0 solid; padding:0px; vertical-align: top; background-color: white"><td style="vertical-align: top; text-align : var(--ig-left,left); background-color: white; border: 1px #F0F0F0 solid; padding:0px 4px 0px 4px; white-space: nowrap; background-image: url(tbl_bck00.png)" class="hierarchy"><img src="tbl_spacer.png" alt="." style="background-color: inherit" class="hierarchy"/><img src="tbl_vjoin_end.png" alt="." style="background-color: inherit" class="hierarchy"/><img src="icon-q-string.png" alt="." style="background-color: white; background-color: inherit" title="Item" class="hierarchy"/> mental-2</td><td style="vertical-align: top; text-align : var(--ig-left,left); background-color: white; border: 1px #F0F0F0 solid; padding:0px 4px 0px 4px" class="hierarchy">精神狀態</td><td style="vertical-align: top; text-align : var(--ig-left,left); background-color: white; border: 1px #F0F0F0 solid; padding:0px 4px 0px 4px" class="hierarchy"/><td style="vertical-align: top; text-align : var(--ig-left,left); background-color: white; border: 1px #F0F0F0 solid; padding:0px 4px 0px 4px" class="hierarchy"><span><span>TempCodeCS stable: 穩定</span></span></td></tr>
<tr><td colspan="4" class="hierarchy"><br/><a href="https://hl7.org/fhir/R4/formats.html#table" title="Legend for this format"><img src="data:image/png;base64," alt="doco" style="background-color: inherit"/> Documentation for this format</a></td></tr></table></div>
        </text>
        <questionnaire value="Questionnaire/ltc-questionnaire-mental"/>
        <status value="completed"/>
        <subject>
          <reference value="Patient/ltc-patient-cms-example"/>
        </subject>
        <authored value="2024-09-15T10:55:00+08:00"/>
        <item>
          <linkId value="mental-1"/>
          <text value="認知功能評估"/>
          <answer>
            <valueCoding>
              <system value="http://ltc-ig.fhir.tw/CodeSystem/TempCodeCS"/>
              <code value="mild-impairment"/>
              <display value="輕度損害"/>
            </valueCoding>
          </answer>
        </item>
        <item>
          <linkId value="mental-2"/>
          <text value="精神狀態"/>
          <answer>
            <valueCoding>
              <system value="http://ltc-ig.fhir.tw/CodeSystem/TempCodeCS"/>
              <code value="stable"/>
              <display value="穩定"/>
            </valueCoding>
          </answer>
        </item>
      </QuestionnaireResponse>
    </resource>
  </entry>
  <entry>
    <fullUrl value="http://ltc-ig.fhir.tw/QuestionnaireResponse/ltc-questionnaire-response-caregiver-load-example"/>
    <resource>
      <QuestionnaireResponse>
        <id value="ltc-questionnaire-response-caregiver-load-example"/>
        <meta>
          <profile value="http://ltc-ig.fhir.tw/StructureDefinition/LTCQuestionnaireResponse"/>
        </meta>
        <text>
          <status value="generated"/><div xmlns="http://www.w3.org/1999/xhtml"><a name="QuestionnaireResponse_ltc-questionnaire-response-caregiver-load-example"> </a><p class="res-header-id"><b>Generated Narrative: QuestionnaireResponse ltc-questionnaire-response-caregiver-load-example</b></p><a name="ltc-questionnaire-response-caregiver-load-example"> </a><a name="hcltc-questionnaire-response-caregiver-load-example"> </a><div style="display: inline-block; background-color: #d9e0e7; padding: 6px; margin: 4px; border: 1px solid #8da1b4; border-radius: 5px; line-height: 60%"><p style="margin-bottom: 0px"/><p style="margin-bottom: 0px">Profile: <a href="StructureDefinition-LTCQuestionnaireResponse.html">長期照顧－問卷回覆</a></p></div><table border="1" cellpadding="0" cellspacing="0" style="border: 1px #F0F0F0 solid; font-size: 11px; font-family: verdana; vertical-align: top;"><tr style="border: 2px #F0F0F0 solid; font-size: 11px; font-family: verdana; vertical-align: top"><th style="vertical-align: top; text-align : var(--ig-left,left); background-color: white; border: 1px #F0F0F0 solid; padding:0px 4px 0px 4px; padding-top: 3px; padding-bottom: 3px" class="hierarchy"><a href="https://hl7.org/fhir/R4/formats.html#table" title="The linkID for the item">LinkID</a></th><th style="vertical-align: top; text-align : var(--ig-left,left); background-color: white; border: 1px #F0F0F0 solid; padding:0px 4px 0px 4px; padding-top: 3px; padding-bottom: 3px" class="hierarchy"><a href="https://hl7.org/fhir/R4/formats.html#table" title="Text for the item">Text</a></th><th style="vertical-align: top; text-align : var(--ig-left,left); background-color: white; border: 1px #F0F0F0 solid; padding:0px 4px 0px 4px; padding-top: 3px; padding-bottom: 3px" class="hierarchy"><a href="https://hl7.org/fhir/R4/formats.html#table" title="Minimum and Maximum # of times the item can appear in the instance">Definition</a></th><th style="vertical-align: top; text-align : var(--ig-left,left); background-color: white; border: 1px #F0F0F0 solid; padding:0px 4px 0px 4px; padding-top: 3px; padding-bottom: 3px" class="hierarchy"><a href="https://hl7.org/fhir/R4/formats.html#table" title="The type of the item">Answer</a><span style="float: right"><a href="https://hl7.org/fhir/R4/formats.html#table" title="Legend for this format"><img src="data:image/png;base64," alt="doco" style="background-color: inherit"/></a></span></th></tr><tr style="border: 1px #F0F0F0 solid; padding:0px; vertical-align: top; background-color: white"><td style="vertical-align: top; text-align : var(--ig-left,left); background-color: white; border: 1px #F0F0F0 solid; padding:0px 4px 0px 4px; white-space: nowrap; background-image: url(tbl_bck1.png)" class="hierarchy"><img src="tbl_spacer.png" alt="." style="background-color: inherit" class="hierarchy"/><img src="icon_q_root.gif" alt="." style="background-color: white; background-color: inherit" title="QuestionnaireResponseRoot" class="hierarchy"/> ltc-questionnaire-response-caregiver-load-example</td><td style="vertical-align: top; text-align : var(--ig-left,left); background-color: white; border: 1px #F0F0F0 solid; padding:0px 4px 0px 4px" class="hierarchy"></td><td style="vertical-align: top; text-align : var(--ig-left,left); background-color: white; border: 1px #F0F0F0 solid; padding:0px 4px 0px 4px" class="hierarchy"></td><td style="vertical-align: top; text-align : var(--ig-left,left); background-color: white; border: 1px #F0F0F0 solid; padding:0px 4px 0px 4px" class="hierarchy">Questionnaire:Questionnaire/ltc-questionnaire-caregiver-load</td></tr>
<tr style="border: 1px #F0F0F0 solid; padding:0px; vertical-align: top; background-color: #F7F7F7"><td style="vertical-align: top; text-align : var(--ig-left,left); background-color: #F7F7F7; border: 1px #F0F0F0 solid; padding:0px 4px 0px 4px; white-space: nowrap; background-image: url(tbl_bck10.png)" class="hierarchy"><img src="tbl_spacer.png" alt="." style="background-color: inherit" class="hierarchy"/><img src="tbl_vjoin.png" alt="." style="background-color: inherit" class="hierarchy"/><img src="icon-q-string.png" alt="." style="background-color: #F7F7F7; background-color: inherit" title="Item" class="hierarchy"/> caregiver-load-1</td><td style="vertical-align: top; text-align : var(--ig-left,left); background-color: #F7F7F7; border: 1px #F0F0F0 solid; padding:0px 4px 0px 4px" class="hierarchy">照顧負擔程度</td><td style="vertical-align: top; text-align : var(--ig-left,left); background-color: #F7F7F7; border: 1px #F0F0F0 solid; padding:0px 4px 0px 4px" class="hierarchy"/><td style="vertical-align: top; text-align : var(--ig-left,left); background-color: #F7F7F7; border: 1px #F0F0F0 solid; padding:0px 4px 0px 4px" class="hierarchy"><span><span>TempCodeCS moderate: 中等</span></span></td></tr>
<tr style="border: 1px #F0F0F0 solid; padding:0px; vertical-align: top; background-color: white"><td style="vertical-align: top; text-align : var(--ig-left,left); background-color: white; border: 1px #F0F0F0 solid; padding:0px 4px 0px 4px; white-space: nowrap; background-image: url(tbl_bck00.png)" class="hierarchy"><img src="tbl_spacer.png" alt="." style="background-color: inherit" class="hierarchy"/><img src="tbl_vjoin_end.png" alt="." style="background-color: inherit" class="hierarchy"/><img src="icon-q-string.png" alt="." style="background-color: white; background-color: inherit" title="Item" class="hierarchy"/> caregiver-load-2</td><td style="vertical-align: top; text-align : var(--ig-left,left); background-color: white; border: 1px #F0F0F0 solid; padding:0px 4px 0px 4px" class="hierarchy">需要支援服務</td><td style="vertical-align: top; text-align : var(--ig-left,left); background-color: white; border: 1px #F0F0F0 solid; padding:0px 4px 0px 4px" class="hierarchy"/><td style="vertical-align: top; text-align : var(--ig-left,left); background-color: white; border: 1px #F0F0F0 solid; padding:0px 4px 0px 4px" class="hierarchy">true</td></tr>
<tr><td colspan="4" class="hierarchy"><br/><a href="https://hl7.org/fhir/R4/formats.html#table" title="Legend for this format"><img src="data:image/png;base64," alt="doco" style="background-color: inherit"/> Documentation for this format</a></td></tr></table></div>
        </text>
        <questionnaire value="Questionnaire/ltc-questionnaire-caregiver-load"/>
        <status value="completed"/>
        <subject>
          <reference value="Patient/ltc-patient-cms-example"/>
        </subject>
        <authored value="2024-09-15T11:00:00+08:00"/>
        <item>
          <linkId value="caregiver-load-1"/>
          <text value="照顧負擔程度"/>
          <answer>
            <valueCoding>
              <system value="http://ltc-ig.fhir.tw/CodeSystem/TempCodeCS"/>
              <code value="moderate"/>
              <display value="中等"/>
            </valueCoding>
          </answer>
        </item>
        <item>
          <linkId value="caregiver-load-2"/>
          <text value="需要支援服務"/>
          <answer>
            <valueBoolean value="true"/>
          </answer>
        </item>
      </QuestionnaireResponse>
    </resource>
  </entry>
  <entry>
    <fullUrl value="http://ltc-ig.fhir.tw/QuestionnaireResponse/ltc-questionnaire-response-caregiver-support-example"/>
    <resource>
      <QuestionnaireResponse>
        <id value="ltc-questionnaire-response-caregiver-support-example"/>
        <meta>
          <profile value="http://ltc-ig.fhir.tw/StructureDefinition/LTCQuestionnaireResponse"/>
        </meta>
        <text>
          <status value="generated"/><div xmlns="http://www.w3.org/1999/xhtml"><a name="QuestionnaireResponse_ltc-questionnaire-response-caregiver-support-example"> </a><p class="res-header-id"><b>Generated Narrative: QuestionnaireResponse ltc-questionnaire-response-caregiver-support-example</b></p><a name="ltc-questionnaire-response-caregiver-support-example"> </a><a name="hcltc-questionnaire-response-caregiver-support-example"> </a><div style="display: inline-block; background-color: #d9e0e7; padding: 6px; margin: 4px; border: 1px solid #8da1b4; border-radius: 5px; line-height: 60%"><p style="margin-bottom: 0px"/><p style="margin-bottom: 0px">Profile: <a href="StructureDefinition-LTCQuestionnaireResponse.html">長期照顧－問卷回覆</a></p></div><table border="1" cellpadding="0" cellspacing="0" style="border: 1px #F0F0F0 solid; font-size: 11px; font-family: verdana; vertical-align: top;"><tr style="border: 2px #F0F0F0 solid; font-size: 11px; font-family: verdana; vertical-align: top"><th style="vertical-align: top; text-align : var(--ig-left,left); background-color: white; border: 1px #F0F0F0 solid; padding:0px 4px 0px 4px; padding-top: 3px; padding-bottom: 3px" class="hierarchy"><a href="https://hl7.org/fhir/R4/formats.html#table" title="The linkID for the item">LinkID</a></th><th style="vertical-align: top; text-align : var(--ig-left,left); background-color: white; border: 1px #F0F0F0 solid; padding:0px 4px 0px 4px; padding-top: 3px; padding-bottom: 3px" class="hierarchy"><a href="https://hl7.org/fhir/R4/formats.html#table" title="Text for the item">Text</a></th><th style="vertical-align: top; text-align : var(--ig-left,left); background-color: white; border: 1px #F0F0F0 solid; padding:0px 4px 0px 4px; padding-top: 3px; padding-bottom: 3px" class="hierarchy"><a href="https://hl7.org/fhir/R4/formats.html#table" title="Minimum and Maximum # of times the item can appear in the instance">Definition</a></th><th style="vertical-align: top; text-align : var(--ig-left,left); background-color: white; border: 1px #F0F0F0 solid; padding:0px 4px 0px 4px; padding-top: 3px; padding-bottom: 3px" class="hierarchy"><a href="https://hl7.org/fhir/R4/formats.html#table" title="The type of the item">Answer</a><span style="float: right"><a href="https://hl7.org/fhir/R4/formats.html#table" title="Legend for this format"><img src="data:image/png;base64," alt="doco" style="background-color: inherit"/></a></span></th></tr><tr style="border: 1px #F0F0F0 solid; padding:0px; vertical-align: top; background-color: white"><td style="vertical-align: top; text-align : var(--ig-left,left); background-color: white; border: 1px #F0F0F0 solid; padding:0px 4px 0px 4px; white-space: nowrap; background-image: url(tbl_bck1.png)" class="hierarchy"><img src="tbl_spacer.png" alt="." style="background-color: inherit" class="hierarchy"/><img src="icon_q_root.gif" alt="." style="background-color: white; background-color: inherit" title="QuestionnaireResponseRoot" class="hierarchy"/> ltc-questionnaire-response-caregiver-support-example</td><td style="vertical-align: top; text-align : var(--ig-left,left); background-color: white; border: 1px #F0F0F0 solid; padding:0px 4px 0px 4px" class="hierarchy"></td><td style="vertical-align: top; text-align : var(--ig-left,left); background-color: white; border: 1px #F0F0F0 solid; padding:0px 4px 0px 4px" class="hierarchy"></td><td style="vertical-align: top; text-align : var(--ig-left,left); background-color: white; border: 1px #F0F0F0 solid; padding:0px 4px 0px 4px" class="hierarchy">Questionnaire:Questionnaire/ltc-questionnaire-caregiver-support</td></tr>
<tr style="border: 1px #F0F0F0 solid; padding:0px; vertical-align: top; background-color: #F7F7F7"><td style="vertical-align: top; text-align : var(--ig-left,left); background-color: #F7F7F7; border: 1px #F0F0F0 solid; padding:0px 4px 0px 4px; white-space: nowrap; background-image: url(tbl_bck10.png)" class="hierarchy"><img src="tbl_spacer.png" alt="." style="background-color: inherit" class="hierarchy"/><img src="tbl_vjoin.png" alt="." style="background-color: inherit" class="hierarchy"/><img src="icon-q-string.png" alt="." style="background-color: #F7F7F7; background-color: inherit" title="Item" class="hierarchy"/> caregiver-support-1</td><td style="vertical-align: top; text-align : var(--ig-left,left); background-color: #F7F7F7; border: 1px #F0F0F0 solid; padding:0px 4px 0px 4px" class="hierarchy">目前獲得的支持</td><td style="vertical-align: top; text-align : var(--ig-left,left); background-color: #F7F7F7; border: 1px #F0F0F0 solid; padding:0px 4px 0px 4px" class="hierarchy"/><td style="vertical-align: top; text-align : var(--ig-left,left); background-color: #F7F7F7; border: 1px #F0F0F0 solid; padding:0px 4px 0px 4px" class="hierarchy"><span><span>TempCodeCS adequate: 充足</span></span></td></tr>
<tr style="border: 1px #F0F0F0 solid; padding:0px; vertical-align: top; background-color: white"><td style="vertical-align: top; text-align : var(--ig-left,left); background-color: white; border: 1px #F0F0F0 solid; padding:0px 4px 0px 4px; white-space: nowrap; background-image: url(tbl_bck00.png)" class="hierarchy"><img src="tbl_spacer.png" alt="." style="background-color: inherit" class="hierarchy"/><img src="tbl_vjoin_end.png" alt="." style="background-color: inherit" class="hierarchy"/><img src="icon-q-string.png" alt="." style="background-color: white; background-color: inherit" title="Item" class="hierarchy"/> caregiver-support-2</td><td style="vertical-align: top; text-align : var(--ig-left,left); background-color: white; border: 1px #F0F0F0 solid; padding:0px 4px 0px 4px" class="hierarchy">額外支持需求</td><td style="vertical-align: top; text-align : var(--ig-left,left); background-color: white; border: 1px #F0F0F0 solid; padding:0px 4px 0px 4px" class="hierarchy"/><td style="vertical-align: top; text-align : var(--ig-left,left); background-color: white; border: 1px #F0F0F0 solid; padding:0px 4px 0px 4px" class="hierarchy">false</td></tr>
<tr><td colspan="4" class="hierarchy"><br/><a href="https://hl7.org/fhir/R4/formats.html#table" title="Legend for this format"><img src="data:image/png;base64," alt="doco" style="background-color: inherit"/> Documentation for this format</a></td></tr></table></div>
        </text>
        <questionnaire value="Questionnaire/ltc-questionnaire-caregiver-support"/>
        <status value="completed"/>
        <subject>
          <reference value="Patient/ltc-patient-cms-example"/>
        </subject>
        <authored value="2024-09-15T11:05:00+08:00"/>
        <item>
          <linkId value="caregiver-support-1"/>
          <text value="目前獲得的支持"/>
          <answer>
            <valueCoding>
              <system value="http://ltc-ig.fhir.tw/CodeSystem/TempCodeCS"/>
              <code value="adequate"/>
              <display value="充足"/>
            </valueCoding>
          </answer>
        </item>
        <item>
          <linkId value="caregiver-support-2"/>
          <text value="額外支持需求"/>
          <answer>
            <valueBoolean value="false"/>
          </answer>
        </item>
      </QuestionnaireResponse>
    </resource>
  </entry>
  <entry>
    <fullUrl value="http://ltc-ig.fhir.tw/Condition/ltc-condition-caregiver-family-example"/>
    <resource>
      <Condition>
        <id value="ltc-condition-caregiver-family-example"/>
        <meta>
          <profile value="http://ltc-ig.fhir.tw/StructureDefinition/LTCConditionCaregiver"/>
        </meta>
        <text>
          <status value="generated"/><div xmlns="http://www.w3.org/1999/xhtml"><a name="Condition_ltc-condition-caregiver-family-example"> </a><p class="res-header-id"><b>Generated Narrative: Condition ltc-condition-caregiver-family-example</b></p><a name="ltc-condition-caregiver-family-example"> </a><a name="hcltc-condition-caregiver-family-example"> </a><div style="display: inline-block; background-color: #d9e0e7; padding: 6px; margin: 4px; border: 1px solid #8da1b4; border-radius: 5px; line-height: 60%"><p style="margin-bottom: 0px"/><p style="margin-bottom: 0px">Profile: <a href="StructureDefinition-LTCConditionCaregiver.html">長期照顧－看護狀況</a></p></div><p><b>clinicalStatus</b>: <span title="Codes:{http://terminology.hl7.org/CodeSystem/condition-clinical active}">Active</span></p><p><b>verificationStatus</b>: <span title="Codes:{http://terminology.hl7.org/CodeSystem/condition-ver-status confirmed}">Confirmed</span></p><p><b>category</b>: <span title="Codes:{http://terminology.hl7.org/CodeSystem/condition-category problem-list-item}">Problem List Item</span></p><p><b>code</b>: <span title="Codes:{http://ltc-ig.fhir.tw/ValueSet/ReferralConditionCaregiverVS-TWLTC caregiver}">有照顧者</span></p><p><b>subject</b>: <a href="Patient-ltc-patient-chen-ming-hui.html">陳明慧 Female, DoB: 1945-03-15 ( National Person Identifier: A123456789 (use: official, ))</a></p><p><b>onset</b>: 2024-01-01</p><p><b>recorder</b>: <a href="PractitionerRole-ltc-practitioner-role-nurse-example.html">PractitionerRole Registered nurse</a></p><p><b>note</b>: @2024-01-15</p><blockquote><div><p>主要照顧者為兒子，本國籍，每日照顧時間約8小時，無外籍看護</p>
</div></blockquote></div>
        </text>
        <clinicalStatus>
          <coding>
            <system value="http://terminology.hl7.org/CodeSystem/condition-clinical"/>
            <code value="active"/>
          </coding>
        </clinicalStatus>
        <verificationStatus>
          <coding>
            <system value="http://terminology.hl7.org/CodeSystem/condition-ver-status"/>
            <code value="confirmed"/>
          </coding>
        </verificationStatus>
        <category>
          <coding>
            <system value="http://terminology.hl7.org/CodeSystem/condition-category"/>
            <code value="problem-list-item"/>
            <display value="Problem List Item"/>
          </coding>
        </category>
        <code>
          <coding>
            <system value="http://ltc-ig.fhir.tw/ValueSet/ReferralConditionCaregiverVS-TWLTC"/>
            <code value="caregiver"/>
            <display value="有照顧者"/>
          </coding>
        </code>
        <subject>
          <reference value="Patient/ltc-patient-chen-ming-hui"/>
        </subject>
        <onsetDateTime value="2024-01-01"/>
        <recorder>
          <reference value="PractitionerRole/ltc-practitioner-role-nurse-example"/>
        </recorder>
        <note>
          <time value="2024-01-15"/>
          <text value="主要照顧者為兒子，本國籍，每日照顧時間約8小時，無外籍看護"/>
        </note>
      </Condition>
    </resource>
  </entry>
  <entry>
    <fullUrl value="http://ltc-ig.fhir.tw/Organization/ltc-organization-example"/>
    <resource>
      <Organization>
        <id value="ltc-organization-example"/>
        <meta>
          <profile value="http://ltc-ig.fhir.tw/StructureDefinition/Organization-twltc"/>
        </meta>
        <text>
          <status value="generated"/><div xmlns="http://www.w3.org/1999/xhtml"><a name="Organization_ltc-organization-example"> </a><p class="res-header-id"><b>Generated Narrative: Organization ltc-organization-example</b></p><a name="ltc-organization-example"> </a><a name="hcltc-organization-example"> </a><div style="display: inline-block; background-color: #d9e0e7; padding: 6px; margin: 4px; border: 1px solid #8da1b4; border-radius: 5px; line-height: 60%"><p style="margin-bottom: 0px"/><p style="margin-bottom: 0px">Profile: <a href="StructureDefinition-Organization-twltc.html">長期照顧－機構</a></p></div><p><b>identifier</b>: Provider Number/0131060029 (use: usual, )</p><p><b>active</b>: true</p><p><b>type</b>: <span title="Codes:{http://terminology.hl7.org/CodeSystem/organization-type prov}">Healthcare Provider</span></p><p><b>name</b>: 新北市私立安康老人長期照顧中心（養護型）</p><p><b>telecom</b>: ph: 02-29412345(Work), fax: 02-29412346(Work)</p><p><b>address</b>: 新北市中和區安康路二段123號(work)</p><h3>Contacts</h3><table class="grid"><tr><td style="display: none">-</td><td><b>Purpose</b></td><td><b>Name</b></td><td><b>Telecom</b></td></tr><tr><td style="display: none">*</td><td><span title="Codes:{http://terminology.hl7.org/CodeSystem/contactentity-type ADMIN}">Administrative</span></td><td>志明 王 (Official)</td><td>ph: 02-29412345(Work)</td></tr></table></div>
        </text>
        <identifier>
          <use value="usual"/>
          <type>
            <coding>
              <system value="http://terminology.hl7.org/CodeSystem/v2-0203"/>
              <code value="PRN"/>
              <display value="Provider Number"/>
            </coding>
          </type>
          <system value="http://www.moi.gov.tw"/>
          <value value="0131060029"/>
        </identifier>
        <active value="true"/>
        <type>
          <coding>
            <system value="http://terminology.hl7.org/CodeSystem/organization-type"/>
            <code value="prov"/>
            <display value="Healthcare Provider"/>
          </coding>
        </type>
        <name value="新北市私立安康老人長期照顧中心（養護型）"/>
        <telecom>
          <system value="phone"/>
          <value value="02-29412345"/>
          <use value="work"/>
        </telecom>
        <telecom>
          <system value="fax"/>
          <value value="02-29412346"/>
          <use value="work"/>
        </telecom>
        <address>
          <use value="work"/>
          <type value="physical"/>
          <text value="新北市中和區安康路二段123號"/>
          <line value="安康路二段123號"/>
          <city value="中和區"/>
          <state value="新北市"/>
          <postalCode value="23511"/>
          <country value="TW"/>
        </address>
        <contact>
          <purpose>
            <coding>
              <system value="http://terminology.hl7.org/CodeSystem/contactentity-type"/>
              <code value="ADMIN"/>
              <display value="Administrative"/>
            </coding>
          </purpose>
          <name>
            <use value="official"/>
            <family value="王"/>
            <given value="志明"/>
          </name>
          <telecom>
            <system value="phone"/>
            <value value="02-29412345"/>
            <use value="work"/>
          </telecom>
        </contact>
      </Organization>
    </resource>
  </entry>
  <entry>
    <fullUrl value="http://ltc-ig.fhir.tw/PractitionerRole/ltc-practitioner-role-nurse-example"/>
    <resource>
      <PractitionerRole>
        <id value="ltc-practitioner-role-nurse-example"/>
        <meta>
          <profile value="http://ltc-ig.fhir.tw/StructureDefinition/LTCPractitionerRole"/>
        </meta>
        <text>
          <status value="generated"/><div xmlns="http://www.w3.org/1999/xhtml"><a name="PractitionerRole_ltc-practitioner-role-nurse-example"> </a><p class="res-header-id"><b>Generated Narrative: PractitionerRole ltc-practitioner-role-nurse-example</b></p><a name="ltc-practitioner-role-nurse-example"> </a><a name="hcltc-practitioner-role-nurse-example"> </a><div style="display: inline-block; background-color: #d9e0e7; padding: 6px; margin: 4px; border: 1px solid #8da1b4; border-radius: 5px; line-height: 60%"><p style="margin-bottom: 0px"/><p style="margin-bottom: 0px">Profile: <a href="StructureDefinition-LTCPractitionerRole.html">長期照顧－服務人員角色</a></p></div><p><b>active</b>: true</p><p><b>practitioner</b>: <a href="Practitioner-ltc-practitioner-nurse-example.html">Practitioner 王美玲(official)</a></p><p><b>organization</b>: <a href="Organization-ltc-organization-example.html">Organization 新北市私立安康老人長期照顧中心（養護型）</a></p><p><b>code</b>: <span title="Codes:{http://snomed.info/sct 224535009}">Registered nurse</span></p><p><b>specialty</b>: <span title="Codes:{http://snomed.info/sct 408443003}">General medical practice</span></p><p><b>telecom</b>: ph: 02-29412345(Work), <a href="mailto:meiling.wang@ltc-center.tw">meiling.wang@ltc-center.tw</a></p><blockquote><p><b>availableTime</b></p><p><b>daysOfWeek</b>: Monday, Tuesday, Wednesday, Thursday, Friday</p><p><b>availableStartTime</b>: 08:00:00</p><p><b>availableEndTime</b>: 17:00:00</p></blockquote></div>
        </text>
        <active value="true"/>
        <practitioner>
          <reference value="Practitioner/ltc-practitioner-nurse-example"/>
        </practitioner>
        <organization>
          <reference value="Organization/ltc-organization-example"/>
        </organization>
        <code>
          <coding>
            <system value="http://snomed.info/sct"/>
            <code value="224535009"/>
            <display value="Registered nurse"/>
          </coding>
        </code>
        <specialty>
          <coding>
            <system value="http://snomed.info/sct"/>
            <code value="408443003"/>
            <display value="General medical practice"/>
          </coding>
        </specialty>
        <telecom>
          <system value="phone"/>
          <value value="02-29412345"/>
          <use value="work"/>
        </telecom>
        <telecom>
          <system value="email"/>
          <value value="meiling.wang@ltc-center.tw"/>
          <use value="work"/>
        </telecom>
        <availableTime>
          <daysOfWeek value="mon"/>
          <daysOfWeek value="tue"/>
          <daysOfWeek value="wed"/>
          <daysOfWeek value="thu"/>
          <daysOfWeek value="fri"/>
          <availableStartTime value="08:00:00"/>
          <availableEndTime value="17:00:00"/>
        </availableTime>
      </PractitionerRole>
    </resource>
  </entry>
</Bundle>