{
  "resourceType" : "Bundle",
  "id" : "ltc-bundle-referral-example",
  "meta" : {
    "profile" : ["http://ltc-ig.fhir.tw/StructureDefinition/LTCBundleReferral"]
  },
  "identifier" : {
    "system" : "http://ltc-ig.fhir.tw/bundle-id",
    "value" : "referral-bundle-001"
  },
  "type" : "document",
  "timestamp" : "2024-01-20T09:00:00+08:00",
  "entry" : [{
    "fullUrl" : "http://ltc-ig.fhir.tw/Composition/ltc-composition-referral-example",
    "resource" : {
      "resourceType" : "Composition",
      "id" : "ltc-composition-referral-example",
      "meta" : {
        "profile" : ["http://ltc-ig.fhir.tw/StructureDefinition/LTCCompositionReferral"]
      },
      "text" : {
        "status" : "generated",
        "div" : "<div xmlns=\"http://www.w3.org/1999/xhtml\"><a name=\"Composition_ltc-composition-referral-example\"> </a><p class=\"res-header-id\"><b>Generated Narrative: Composition ltc-composition-referral-example</b></p><a name=\"ltc-composition-referral-example\"> </a><a name=\"hcltc-composition-referral-example\"> </a><div style=\"display: inline-block; background-color: #d9e0e7; padding: 6px; margin: 4px; border: 1px solid #8da1b4; border-radius: 5px; line-height: 60%\"><p style=\"margin-bottom: 0px\"/><p style=\"margin-bottom: 0px\">Profile: <a href=\"StructureDefinition-LTCCompositionReferral.html\">長期照護管理中心個案服務初篩表/轉介單文件架構</a></p></div><p><b>status</b>: Final</p><p><b>type</b>: <span title=\"Codes:{http://loinc.org 11488-4}\">長期照顧管理中心個案服務初篩表/轉介單</span></p><p><b>date</b>: 2024-01-20 09:00:00+0800</p><p><b>author</b>: <a href=\"PractitionerRole-ltc-practitioner-role-nurse-example.html\">PractitionerRole Registered nurse</a></p><p><b>title</b>: 陳明慧女士長期照顧服務轉介單</p></div>"
      },
      "status" : "final",
      "type" : {
        "coding" : [{
          "system" : "http://loinc.org",
          "code" : "11488-4",
          "display" : "Consult note"
        }],
        "text" : "長期照顧管理中心個案服務初篩表/轉介單"
      },
      "subject" : {
        "reference" : "http://ltc-ig.fhir.tw/Patient/ltc-patient-referral-chen-ming-hui-example"
      },
      "date" : "2024-01-20T09:00:00+08:00",
      "author" : [{
        "reference" : "PractitionerRole/ltc-practitioner-role-nurse-example"
      }],
      "title" : "陳明慧女士長期照顧服務轉介單",
      "section" : [{
        "title" : "個案基本資料",
        "entry" : [{
          "reference" : "http://ltc-ig.fhir.tw/Patient/ltc-patient-referral-chen-ming-hui-example"
        }]
      },
      {
        "title" : "身心障礙手冊",
        "entry" : [{
          "reference" : "http://ltc-ig.fhir.tw/Condition/ltc-condition-disability-example"
        },
        {
          "reference" : "http://ltc-ig.fhir.tw/Condition/ltc-condition-disability-type-limb-example"
        }]
      },
      {
        "title" : "管路",
        "entry" : [{
          "reference" : "http://ltc-ig.fhir.tw/Condition/ltc-condition-tube-nasogastric-example"
        }]
      },
      {
        "title" : "壓傷",
        "entry" : [{
          "reference" : "http://ltc-ig.fhir.tw/Condition/ltc-condition-crush-stage2-example"
        }]
      },
      {
        "title" : "居住狀況",
        "entry" : [{
          "reference" : "http://ltc-ig.fhir.tw/Condition/ltc-condition-residence-not-alone-example"
        }]
      },
      {
        "title" : "看護",
        "entry" : [{
          "reference" : "http://ltc-ig.fhir.tw/Condition/ltc-condition-caregiver-family-example"
        }]
      },
      {
        "title" : "疾病狀況",
        "entry" : [{
          "reference" : "http://ltc-ig.fhir.tw/Condition/ltc-condition-diabetes-example"
        }]
      },
      {
        "title" : "案主(家)主要問題及需求",
        "entry" : [{
          "reference" : "http://ltc-ig.fhir.tw/Condition/ltc-condition-diabetes-example"
        }]
      },
      {
        "title" : "欲申請服務之種類",
        "entry" : [{
          "reference" : "http://ltc-ig.fhir.tw/CarePlan/ltc-careplan-referral-home-service-example"
        }]
      },
      {
        "title" : "ADL 失能項目評估",
        "entry" : [{
          "reference" : "http://ltc-ig.fhir.tw/QuestionnaireResponse/ltc-questionnaire-response-adl-example"
        }]
      },
      {
        "title" : "IADL 失能項目評估",
        "entry" : [{
          "reference" : "http://ltc-ig.fhir.tw/QuestionnaireResponse/ltc-questionnaire-response-adl-example"
        }]
      },
      {
        "title" : "長者衰弱評估",
        "entry" : [{
          "reference" : "http://ltc-ig.fhir.tw/QuestionnaireResponse/ltc-questionnaire-response-adl-example"
        }]
      },
      {
        "title" : "照顧者評估",
        "entry" : [{
          "reference" : "http://ltc-ig.fhir.tw/QuestionnaireResponse/ltc-questionnaire-response-adl-example"
        }]
      },
      {
        "title" : "出入院情形",
        "entry" : [{
          "reference" : "http://ltc-ig.fhir.tw/Encounter/ltc-encounter-example"
        }]
      },
      {
        "title" : "填表者/轉介者資訊及簽名欄",
        "entry" : [{
          "reference" : "http://ltc-ig.fhir.tw/Practitioner/ltc-practitioner-nurse-example"
        }]
      },
      {
        "title" : "填表單位資訊",
        "entry" : [{
          "reference" : "http://ltc-ig.fhir.tw/Organization/ltc-organization-example"
        }]
      }]
    }
  },
  {
    "fullUrl" : "http://ltc-ig.fhir.tw/Patient/ltc-patient-referral-chen-ming-hui-example",
    "resource" : {
      "resourceType" : "Patient",
      "id" : "ltc-patient-referral-chen-ming-hui-example",
      "meta" : {
        "profile" : ["http://ltc-ig.fhir.tw/StructureDefinition/LTCPatientReferral"]
      },
      "text" : {
        "status" : "generated",
        "div" : "<div xmlns=\"http://www.w3.org/1999/xhtml\"><a name=\"Patient_ltc-patient-referral-chen-ming-hui-example\"> </a><p class=\"res-header-id\"><b>Generated Narrative: Patient ltc-patient-referral-chen-ming-hui-example</b></p><a name=\"ltc-patient-referral-chen-ming-hui-example\"> </a><a name=\"hcltc-patient-referral-chen-ming-hui-example\"> </a><div style=\"display: inline-block; background-color: #d9e0e7; padding: 6px; margin: 4px; border: 1px solid #8da1b4; border-radius: 5px; line-height: 60%\"><p style=\"margin-bottom: 0px\"/><p style=\"margin-bottom: 0px\">Profile: <a href=\"StructureDefinition-LTCPatientReferral.html\">轉介單－個案基本資料</a></p></div><p style=\"border: 1px #661aff solid; background-color: #e6e6ff; padding: 10px;\">陳明慧 Female, DoB: 1945-03-15 ( National Person Identifier: A123456789\u00a0(use:\u00a0official,\u00a0))</p><hr/><table class=\"grid\"><tr><td style=\"background-color: #f3f5da\" title=\"Record is active\">Active:</td><td colspan=\"3\">true</td></tr><tr><td style=\"background-color: #f3f5da\" title=\"Other Id (see the one above)\">Other Id:</td><td colspan=\"3\">Provider Number/R2024001\u00a0(use:\u00a0official,\u00a0)</td></tr><tr><td style=\"background-color: #f3f5da\" title=\"Alternate names (see the one above)\">Alt. Name:</td><td colspan=\"3\">Chen Ming Hui(Official)</td></tr><tr><td style=\"background-color: #f3f5da\" title=\"Ways to contact the Patient\">Contact Detail</td><td colspan=\"3\"><ul><li>ph: 0912345678(Mobile)</li><li>新北市中和區安康路二段123號3樓301室(home)</li><li>台北市大安區和平東路二段76號2樓(billing)</li></ul></td></tr><tr><td style=\"background-color: #f3f5da\" title=\"Nominated Contact: Next-of-Kin\">Next-of-Kin:</td><td colspan=\"3\"><ul><li>陳志強</li><li>ph: 0987654321(Mobile)</li></ul></td></tr><tr><td style=\"background-color: #f3f5da\" title=\"Patient Links\">Links:</td><td colspan=\"3\"><ul><li>Managing Organization: <a href=\"Organization-ltc-organization-example.html\">Organization 新北市私立安康老人長期照顧中心（養護型）</a></li></ul></td></tr><tr><td style=\"background-color: #f3f5da\" title=\"此 Extension 用以表述長照機構住民的經濟狀況。\"><a href=\"StructureDefinition-ExtPatientEconomyStatus-TWLTC.html\">長照機構住民經濟狀況</a></td><td colspan=\"3\"><span title=\"Codes:{http://ltc-ig.fhir.tw/CodeSystem/EconomyStatusCS-TWLTC middle-income}\">中等收入戶</span></td></tr></table></div>"
      },
      "extension" : [{
        "url" : "http://ltc-ig.fhir.tw/StructureDefinition/ExtPatientEconomyStatus-TWLTC",
        "valueCodeableConcept" : {
          "coding" : [{
            "system" : "http://ltc-ig.fhir.tw/CodeSystem/EconomyStatusCS-TWLTC",
            "code" : "middle-income",
            "display" : "中等收入戶"
          }]
        }
      }],
      "identifier" : [{
        "use" : "official",
        "type" : {
          "coding" : [{
            "system" : "http://terminology.hl7.org/CodeSystem/v2-0203",
            "code" : "PRN",
            "display" : "Provider Number"
          }]
        },
        "system" : "http://www.ankang-ltc.tw",
        "value" : "R2024001"
      },
      {
        "use" : "official",
        "type" : {
          "coding" : [{
            "system" : "http://terminology.hl7.org/CodeSystem/v2-0203",
            "code" : "NNxxx",
            "display" : "National Person Identifier"
          }]
        },
        "system" : "http://www.moi.gov.tw",
        "value" : "A123456789"
      }],
      "active" : true,
      "name" : [{
        "use" : "official",
        "text" : "Chen Ming Hui"
      },
      {
        "use" : "usual",
        "text" : "陳明慧"
      }],
      "telecom" : [{
        "system" : "phone",
        "value" : "0912345678",
        "use" : "mobile"
      }],
      "gender" : "female",
      "birthDate" : "1945-03-15",
      "address" : [{
        "use" : "home",
        "text" : "新北市中和區安康路二段123號3樓301室",
        "line" : ["安康路二段123號3樓301室"],
        "city" : "中和區",
        "state" : "新北市",
        "postalCode" : "23511",
        "country" : "TW"
      },
      {
        "use" : "billing",
        "text" : "台北市大安區和平東路二段76號2樓",
        "line" : ["和平東路二段76號2樓"],
        "city" : "大安區",
        "state" : "台北市",
        "postalCode" : "10663",
        "country" : "TW"
      }],
      "contact" : [{
        "relationship" : [{
          "coding" : [{
            "system" : "http://terminology.hl7.org/CodeSystem/v2-0131",
            "code" : "N",
            "display" : "Next-of-Kin"
          }]
        }],
        "name" : {
          "use" : "usual",
          "text" : "陳志強"
        },
        "telecom" : [{
          "system" : "phone",
          "value" : "0987654321",
          "use" : "mobile"
        }]
      }],
      "managingOrganization" : {
        "reference" : "Organization/ltc-organization-example"
      }
    }
  },
  {
    "fullUrl" : "http://ltc-ig.fhir.tw/Condition/ltc-condition-disability-example",
    "resource" : {
      "resourceType" : "Condition",
      "id" : "ltc-condition-disability-example",
      "meta" : {
        "profile" : ["http://ltc-ig.fhir.tw/StructureDefinition/LTCConditionDisability"]
      },
      "text" : {
        "status" : "generated",
        "div" : "<div xmlns=\"http://www.w3.org/1999/xhtml\"><a name=\"Condition_ltc-condition-disability-example\"> </a><p class=\"res-header-id\"><b>Generated Narrative: Condition ltc-condition-disability-example</b></p><a name=\"ltc-condition-disability-example\"> </a><a name=\"hcltc-condition-disability-example\"> </a><div style=\"display: inline-block; background-color: #d9e0e7; padding: 6px; margin: 4px; border: 1px solid #8da1b4; border-radius: 5px; line-height: 60%\"><p style=\"margin-bottom: 0px\"/><p style=\"margin-bottom: 0px\">Profile: <a href=\"StructureDefinition-LTCConditionDisability.html\">長期照顧－身心障礙手冊持有狀態</a></p></div><p><b>clinicalStatus</b>: <span title=\"Codes:{http://terminology.hl7.org/CodeSystem/condition-clinical active}\">Active</span></p><p><b>verificationStatus</b>: <span title=\"Codes:{http://terminology.hl7.org/CodeSystem/condition-ver-status confirmed}\">Confirmed</span></p><p><b>category</b>: <span title=\"Codes:{http://terminology.hl7.org/CodeSystem/condition-category problem-list-item}\">Problem List Item</span></p><p><b>code</b>: <span title=\"Codes:{http://ltc-ig.fhir.tw/CodeSystem/ConditionDisabilityCS-TWLTC disability-card-holder}\">持有身心障礙手冊</span></p><p><b>subject</b>: <a href=\"Patient-ltc-patient-chen-ming-hui.html\">陳明慧 Female, DoB: 1945-03-15 ( National Person Identifier: A123456789\u00a0(use:\u00a0official,\u00a0))</a></p><p><b>onset</b>: 2015-08-20</p><p><b>recorder</b>: <a href=\"PractitionerRole-ltc-practitioner-role-nurse-example.html\">PractitionerRole Registered nurse</a></p><p><b>note</b>: @2024-01-15</p><blockquote><div><p>住民持有身心障礙手冊，類別為肢體障礙輕度</p>\n</div></blockquote></div>"
      },
      "clinicalStatus" : {
        "coding" : [{
          "system" : "http://terminology.hl7.org/CodeSystem/condition-clinical",
          "code" : "active"
        }]
      },
      "verificationStatus" : {
        "coding" : [{
          "system" : "http://terminology.hl7.org/CodeSystem/condition-ver-status",
          "code" : "confirmed"
        }]
      },
      "category" : [{
        "coding" : [{
          "system" : "http://terminology.hl7.org/CodeSystem/condition-category",
          "code" : "problem-list-item",
          "display" : "Problem List Item"
        }]
      }],
      "code" : {
        "coding" : [{
          "system" : "http://ltc-ig.fhir.tw/CodeSystem/ConditionDisabilityCS-TWLTC",
          "code" : "disability-card-holder",
          "display" : "持有身心障礙手冊"
        }]
      },
      "subject" : {
        "reference" : "Patient/ltc-patient-chen-ming-hui"
      },
      "onsetDateTime" : "2015-08-20",
      "recorder" : {
        "reference" : "PractitionerRole/ltc-practitioner-role-nurse-example"
      },
      "note" : [{
        "time" : "2024-01-15",
        "text" : "住民持有身心障礙手冊，類別為肢體障礙輕度"
      }]
    }
  },
  {
    "fullUrl" : "http://ltc-ig.fhir.tw/Condition/ltc-condition-disability-type-limb-example",
    "resource" : {
      "resourceType" : "Condition",
      "id" : "ltc-condition-disability-type-limb-example",
      "meta" : {
        "profile" : ["http://ltc-ig.fhir.tw/StructureDefinition/LTCConditionDisabilityType"]
      },
      "text" : {
        "status" : "generated",
        "div" : "<div xmlns=\"http://www.w3.org/1999/xhtml\"><a name=\"Condition_ltc-condition-disability-type-limb-example\"> </a><p class=\"res-header-id\"><b>Generated Narrative: Condition ltc-condition-disability-type-limb-example</b></p><a name=\"ltc-condition-disability-type-limb-example\"> </a><a name=\"hcltc-condition-disability-type-limb-example\"> </a><div style=\"display: inline-block; background-color: #d9e0e7; padding: 6px; margin: 4px; border: 1px solid #8da1b4; border-radius: 5px; line-height: 60%\"><p style=\"margin-bottom: 0px\"/><p style=\"margin-bottom: 0px\">Profile: <a href=\"StructureDefinition-LTCConditionDisabilityType.html\">長期照顧－身心障礙類型</a></p></div><p><b>clinicalStatus</b>: <span title=\"Codes:{http://terminology.hl7.org/CodeSystem/condition-clinical active}\">Active</span></p><p><b>verificationStatus</b>: <span title=\"Codes:{http://terminology.hl7.org/CodeSystem/condition-ver-status confirmed}\">Confirmed</span></p><p><b>category</b>: <span title=\"Codes:{http://terminology.hl7.org/CodeSystem/condition-category problem-list-item}\">Problem List Item</span></p><p><b>severity</b>: <span title=\"Codes:{http://ltc-ig.fhir.tw/ValueSet/ConditionSeverityVS-TWLTC mild}\">輕度</span></p><p><b>code</b>: <span title=\"Codes:{http://ltc-ig.fhir.tw/ValueSet/ConditionDisabilityTypeVS-TWLTC limb-disability}\">肢體障礙</span></p><p><b>bodySite</b>: <span title=\"Codes:{http://snomed.info/sct 61685007}\">Lower limb structure</span></p><p><b>subject</b>: <a href=\"Patient-ltc-patient-chen-ming-hui.html\">陳明慧 Female, DoB: 1945-03-15 ( National Person Identifier: A123456789\u00a0(use:\u00a0official,\u00a0))</a></p><p><b>onset</b>: 2015-08-20</p><p><b>recorder</b>: <a href=\"PractitionerRole-ltc-practitioner-role-nurse-example.html\">PractitionerRole Registered nurse</a></p><p><b>note</b>: @2024-01-15</p><blockquote><div><p>左下肢功能輕度受限，影響行走功能，持有身心障礙手冊</p>\n</div></blockquote></div>"
      },
      "clinicalStatus" : {
        "coding" : [{
          "system" : "http://terminology.hl7.org/CodeSystem/condition-clinical",
          "code" : "active"
        }]
      },
      "verificationStatus" : {
        "coding" : [{
          "system" : "http://terminology.hl7.org/CodeSystem/condition-ver-status",
          "code" : "confirmed"
        }]
      },
      "category" : [{
        "coding" : [{
          "system" : "http://terminology.hl7.org/CodeSystem/condition-category",
          "code" : "problem-list-item",
          "display" : "Problem List Item"
        }]
      }],
      "severity" : {
        "coding" : [{
          "system" : "http://ltc-ig.fhir.tw/ValueSet/ConditionSeverityVS-TWLTC",
          "code" : "mild",
          "display" : "輕度"
        }]
      },
      "code" : {
        "coding" : [{
          "system" : "http://ltc-ig.fhir.tw/ValueSet/ConditionDisabilityTypeVS-TWLTC",
          "code" : "limb-disability",
          "display" : "肢體障礙"
        }]
      },
      "bodySite" : [{
        "coding" : [{
          "system" : "http://snomed.info/sct",
          "code" : "61685007",
          "display" : "Lower limb structure"
        }]
      }],
      "subject" : {
        "reference" : "Patient/ltc-patient-chen-ming-hui"
      },
      "onsetDateTime" : "2015-08-20",
      "recorder" : {
        "reference" : "PractitionerRole/ltc-practitioner-role-nurse-example"
      },
      "note" : [{
        "time" : "2024-01-15",
        "text" : "左下肢功能輕度受限，影響行走功能，持有身心障礙手冊"
      }]
    }
  },
  {
    "fullUrl" : "http://ltc-ig.fhir.tw/Condition/ltc-condition-tube-nasogastric-example",
    "resource" : {
      "resourceType" : "Condition",
      "id" : "ltc-condition-tube-nasogastric-example",
      "meta" : {
        "profile" : ["http://ltc-ig.fhir.tw/StructureDefinition/LTCConditionTube"]
      },
      "text" : {
        "status" : "generated",
        "div" : "<div xmlns=\"http://www.w3.org/1999/xhtml\"><a name=\"Condition_ltc-condition-tube-nasogastric-example\"> </a><p class=\"res-header-id\"><b>Generated Narrative: Condition ltc-condition-tube-nasogastric-example</b></p><a name=\"ltc-condition-tube-nasogastric-example\"> </a><a name=\"hcltc-condition-tube-nasogastric-example\"> </a><div style=\"display: inline-block; background-color: #d9e0e7; padding: 6px; margin: 4px; border: 1px solid #8da1b4; border-radius: 5px; line-height: 60%\"><p style=\"margin-bottom: 0px\"/><p style=\"margin-bottom: 0px\">Profile: <a href=\"StructureDefinition-LTCConditionTube.html\">長期照顧－管路裝設狀況</a></p></div><p><b>clinicalStatus</b>: <span title=\"Codes:{http://terminology.hl7.org/CodeSystem/condition-clinical active}\">Active</span></p><p><b>verificationStatus</b>: <span title=\"Codes:{http://terminology.hl7.org/CodeSystem/condition-ver-status confirmed}\">Confirmed</span></p><p><b>category</b>: <span title=\"Codes:{http://terminology.hl7.org/CodeSystem/condition-category problem-list-item}\">Problem List Item</span></p><p><b>code</b>: <span title=\"Codes:{http://ltc-ig.fhir.tw/ValueSet/ReferralConditionTubeVS-TWLTC nasogastric-tube}\">鼻胃管</span></p><p><b>subject</b>: <a href=\"Patient-ltc-patient-chen-ming-hui.html\">陳明慧 Female, DoB: 1945-03-15 ( National Person Identifier: A123456789\u00a0(use:\u00a0official,\u00a0))</a></p><p><b>onset</b>: 2023-12-01</p><p><b>recorder</b>: <a href=\"PractitionerRole-ltc-practitioner-role-nurse-example.html\">PractitionerRole Registered nurse</a></p><p><b>note</b>: @2024-01-15</p><blockquote><div><p>因吞嚥困難需使用鼻胃管進食，管路狀況良好，無發炎現象</p>\n</div></blockquote></div>"
      },
      "clinicalStatus" : {
        "coding" : [{
          "system" : "http://terminology.hl7.org/CodeSystem/condition-clinical",
          "code" : "active"
        }]
      },
      "verificationStatus" : {
        "coding" : [{
          "system" : "http://terminology.hl7.org/CodeSystem/condition-ver-status",
          "code" : "confirmed"
        }]
      },
      "category" : [{
        "coding" : [{
          "system" : "http://terminology.hl7.org/CodeSystem/condition-category",
          "code" : "problem-list-item",
          "display" : "Problem List Item"
        }]
      }],
      "code" : {
        "coding" : [{
          "system" : "http://ltc-ig.fhir.tw/ValueSet/ReferralConditionTubeVS-TWLTC",
          "code" : "nasogastric-tube",
          "display" : "鼻胃管"
        }]
      },
      "subject" : {
        "reference" : "Patient/ltc-patient-chen-ming-hui"
      },
      "onsetDateTime" : "2023-12-01",
      "recorder" : {
        "reference" : "PractitionerRole/ltc-practitioner-role-nurse-example"
      },
      "note" : [{
        "time" : "2024-01-15",
        "text" : "因吞嚥困難需使用鼻胃管進食，管路狀況良好，無發炎現象"
      }]
    }
  },
  {
    "fullUrl" : "http://ltc-ig.fhir.tw/Condition/ltc-condition-crush-stage2-example",
    "resource" : {
      "resourceType" : "Condition",
      "id" : "ltc-condition-crush-stage2-example",
      "meta" : {
        "profile" : ["http://ltc-ig.fhir.tw/StructureDefinition/LTCConditionCrush"]
      },
      "text" : {
        "status" : "generated",
        "div" : "<div xmlns=\"http://www.w3.org/1999/xhtml\"><a name=\"Condition_ltc-condition-crush-stage2-example\"> </a><p class=\"res-header-id\"><b>Generated Narrative: Condition ltc-condition-crush-stage2-example</b></p><a name=\"ltc-condition-crush-stage2-example\"> </a><a name=\"hcltc-condition-crush-stage2-example\"> </a><div style=\"display: inline-block; background-color: #d9e0e7; padding: 6px; margin: 4px; border: 1px solid #8da1b4; border-radius: 5px; line-height: 60%\"><p style=\"margin-bottom: 0px\"/><p style=\"margin-bottom: 0px\">Profile: <a href=\"StructureDefinition-LTCConditionCrush.html\">長期照顧－壓傷狀況</a></p></div><p><b>clinicalStatus</b>: <span title=\"Codes:{http://terminology.hl7.org/CodeSystem/condition-clinical active}\">Active</span></p><p><b>verificationStatus</b>: <span title=\"Codes:{http://terminology.hl7.org/CodeSystem/condition-ver-status confirmed}\">Confirmed</span></p><p><b>category</b>: <span title=\"Codes:{http://terminology.hl7.org/CodeSystem/condition-category problem-list-item}\">Problem List Item</span></p><p><b>code</b>: <span title=\"Codes:{http://ltc-ig.fhir.tw/ValueSet/ReferralConditionCrushVS-TWLTC crush}\">有壓傷</span></p><p><b>bodySite</b>: <span title=\"Codes:{http://snomed.info/sct 54735007}\">Sacral region structure</span></p><p><b>subject</b>: <a href=\"Patient-ltc-patient-chen-ming-hui.html\">陳明慧 Female, DoB: 1945-03-15 ( National Person Identifier: A123456789\u00a0(use:\u00a0official,\u00a0))</a></p><p><b>onset</b>: 2024-01-10</p><p><b>recorder</b>: <a href=\"PractitionerRole-ltc-practitioner-role-nurse-example.html\">PractitionerRole Registered nurse</a></p><p><b>note</b>: @2024-01-15</p><blockquote><div><p>部位：薦骨部位，等級：第二期，大小：3x2 cm^2，正在進行傷口護理</p>\n</div></blockquote></div>"
      },
      "clinicalStatus" : {
        "coding" : [{
          "system" : "http://terminology.hl7.org/CodeSystem/condition-clinical",
          "code" : "active"
        }]
      },
      "verificationStatus" : {
        "coding" : [{
          "system" : "http://terminology.hl7.org/CodeSystem/condition-ver-status",
          "code" : "confirmed"
        }]
      },
      "category" : [{
        "coding" : [{
          "system" : "http://terminology.hl7.org/CodeSystem/condition-category",
          "code" : "problem-list-item",
          "display" : "Problem List Item"
        }]
      }],
      "code" : {
        "coding" : [{
          "system" : "http://ltc-ig.fhir.tw/ValueSet/ReferralConditionCrushVS-TWLTC",
          "code" : "crush",
          "display" : "有壓傷"
        }]
      },
      "bodySite" : [{
        "coding" : [{
          "system" : "http://snomed.info/sct",
          "code" : "54735007",
          "display" : "Sacral region structure"
        }]
      }],
      "subject" : {
        "reference" : "Patient/ltc-patient-chen-ming-hui"
      },
      "onsetDateTime" : "2024-01-10",
      "recorder" : {
        "reference" : "PractitionerRole/ltc-practitioner-role-nurse-example"
      },
      "note" : [{
        "time" : "2024-01-15",
        "text" : "部位：薦骨部位，等級：第二期，大小：3x2 cm^2，正在進行傷口護理"
      }]
    }
  },
  {
    "fullUrl" : "http://ltc-ig.fhir.tw/Condition/ltc-condition-residence-not-alone-example",
    "resource" : {
      "resourceType" : "Condition",
      "id" : "ltc-condition-residence-not-alone-example",
      "meta" : {
        "profile" : ["http://ltc-ig.fhir.tw/StructureDefinition/LTCConditionResidence"]
      },
      "text" : {
        "status" : "generated",
        "div" : "<div xmlns=\"http://www.w3.org/1999/xhtml\"><a name=\"Condition_ltc-condition-residence-not-alone-example\"> </a><p class=\"res-header-id\"><b>Generated Narrative: Condition ltc-condition-residence-not-alone-example</b></p><a name=\"ltc-condition-residence-not-alone-example\"> </a><a name=\"hcltc-condition-residence-not-alone-example\"> </a><div style=\"display: inline-block; background-color: #d9e0e7; padding: 6px; margin: 4px; border: 1px solid #8da1b4; border-radius: 5px; line-height: 60%\"><p style=\"margin-bottom: 0px\"/><p style=\"margin-bottom: 0px\">Profile: <a href=\"StructureDefinition-LTCConditionResidence.html\">長期照顧－居住狀況</a></p></div><p><b>clinicalStatus</b>: <span title=\"Codes:{http://terminology.hl7.org/CodeSystem/condition-clinical active}\">Active</span></p><p><b>verificationStatus</b>: <span title=\"Codes:{http://terminology.hl7.org/CodeSystem/condition-ver-status confirmed}\">Confirmed</span></p><p><b>category</b>: <span title=\"Codes:{http://terminology.hl7.org/CodeSystem/condition-category problem-list-item}\">Problem List Item</span></p><p><b>code</b>: <span title=\"Codes:{http://ltc-ig.fhir.tw/ValueSet/ReferralConditionResidenceVS-TWLTC not-alone}\">非獨居</span></p><p><b>subject</b>: <a href=\"Patient-ltc-patient-chen-ming-hui.html\">陳明慧 Female, DoB: 1945-03-15 ( National Person Identifier: A123456789\u00a0(use:\u00a0official,\u00a0))</a></p><p><b>recordedDate</b>: 2024-01-15</p><p><b>recorder</b>: <a href=\"PractitionerRole-ltc-practitioner-role-nurse-example.html\">PractitionerRole Registered nurse</a></p><p><b>note</b>: @2024-01-15</p><blockquote><div><p>與兒子同住，有家人照顧，居住環境安全</p>\n</div></blockquote></div>"
      },
      "clinicalStatus" : {
        "coding" : [{
          "system" : "http://terminology.hl7.org/CodeSystem/condition-clinical",
          "code" : "active"
        }]
      },
      "verificationStatus" : {
        "coding" : [{
          "system" : "http://terminology.hl7.org/CodeSystem/condition-ver-status",
          "code" : "confirmed"
        }]
      },
      "category" : [{
        "coding" : [{
          "system" : "http://terminology.hl7.org/CodeSystem/condition-category",
          "code" : "problem-list-item",
          "display" : "Problem List Item"
        }]
      }],
      "code" : {
        "coding" : [{
          "system" : "http://ltc-ig.fhir.tw/ValueSet/ReferralConditionResidenceVS-TWLTC",
          "code" : "not-alone",
          "display" : "非獨居"
        }]
      },
      "subject" : {
        "reference" : "Patient/ltc-patient-chen-ming-hui"
      },
      "recordedDate" : "2024-01-15",
      "recorder" : {
        "reference" : "PractitionerRole/ltc-practitioner-role-nurse-example"
      },
      "note" : [{
        "time" : "2024-01-15",
        "text" : "與兒子同住，有家人照顧，居住環境安全"
      }]
    }
  },
  {
    "fullUrl" : "http://ltc-ig.fhir.tw/Condition/ltc-condition-caregiver-family-example",
    "resource" : {
      "resourceType" : "Condition",
      "id" : "ltc-condition-caregiver-family-example",
      "meta" : {
        "profile" : ["http://ltc-ig.fhir.tw/StructureDefinition/LTCConditionCaregiver"]
      },
      "text" : {
        "status" : "generated",
        "div" : "<div xmlns=\"http://www.w3.org/1999/xhtml\"><a name=\"Condition_ltc-condition-caregiver-family-example\"> </a><p class=\"res-header-id\"><b>Generated Narrative: Condition ltc-condition-caregiver-family-example</b></p><a name=\"ltc-condition-caregiver-family-example\"> </a><a name=\"hcltc-condition-caregiver-family-example\"> </a><div style=\"display: inline-block; background-color: #d9e0e7; padding: 6px; margin: 4px; border: 1px solid #8da1b4; border-radius: 5px; line-height: 60%\"><p style=\"margin-bottom: 0px\"/><p style=\"margin-bottom: 0px\">Profile: <a href=\"StructureDefinition-LTCConditionCaregiver.html\">長期照顧－看護狀況</a></p></div><p><b>clinicalStatus</b>: <span title=\"Codes:{http://terminology.hl7.org/CodeSystem/condition-clinical active}\">Active</span></p><p><b>verificationStatus</b>: <span title=\"Codes:{http://terminology.hl7.org/CodeSystem/condition-ver-status confirmed}\">Confirmed</span></p><p><b>category</b>: <span title=\"Codes:{http://terminology.hl7.org/CodeSystem/condition-category problem-list-item}\">Problem List Item</span></p><p><b>code</b>: <span title=\"Codes:{http://ltc-ig.fhir.tw/ValueSet/ReferralConditionCaregiverVS-TWLTC caregiver}\">有照顧者</span></p><p><b>subject</b>: <a href=\"Patient-ltc-patient-chen-ming-hui.html\">陳明慧 Female, DoB: 1945-03-15 ( National Person Identifier: A123456789\u00a0(use:\u00a0official,\u00a0))</a></p><p><b>onset</b>: 2024-01-01</p><p><b>recorder</b>: <a href=\"PractitionerRole-ltc-practitioner-role-nurse-example.html\">PractitionerRole Registered nurse</a></p><p><b>note</b>: @2024-01-15</p><blockquote><div><p>主要照顧者為兒子，本國籍，每日照顧時間約8小時，無外籍看護</p>\n</div></blockquote></div>"
      },
      "clinicalStatus" : {
        "coding" : [{
          "system" : "http://terminology.hl7.org/CodeSystem/condition-clinical",
          "code" : "active"
        }]
      },
      "verificationStatus" : {
        "coding" : [{
          "system" : "http://terminology.hl7.org/CodeSystem/condition-ver-status",
          "code" : "confirmed"
        }]
      },
      "category" : [{
        "coding" : [{
          "system" : "http://terminology.hl7.org/CodeSystem/condition-category",
          "code" : "problem-list-item",
          "display" : "Problem List Item"
        }]
      }],
      "code" : {
        "coding" : [{
          "system" : "http://ltc-ig.fhir.tw/ValueSet/ReferralConditionCaregiverVS-TWLTC",
          "code" : "caregiver",
          "display" : "有照顧者"
        }]
      },
      "subject" : {
        "reference" : "Patient/ltc-patient-chen-ming-hui"
      },
      "onsetDateTime" : "2024-01-01",
      "recorder" : {
        "reference" : "PractitionerRole/ltc-practitioner-role-nurse-example"
      },
      "note" : [{
        "time" : "2024-01-15",
        "text" : "主要照顧者為兒子，本國籍，每日照顧時間約8小時，無外籍看護"
      }]
    }
  },
  {
    "fullUrl" : "http://ltc-ig.fhir.tw/Condition/ltc-condition-diabetes-example",
    "resource" : {
      "resourceType" : "Condition",
      "id" : "ltc-condition-diabetes-example",
      "meta" : {
        "profile" : ["http://ltc-ig.fhir.tw/StructureDefinition/LTCCondition"]
      },
      "text" : {
        "status" : "generated",
        "div" : "<div xmlns=\"http://www.w3.org/1999/xhtml\"><a name=\"Condition_ltc-condition-diabetes-example\"> </a><p class=\"res-header-id\"><b>Generated Narrative: Condition ltc-condition-diabetes-example</b></p><a name=\"ltc-condition-diabetes-example\"> </a><a name=\"hcltc-condition-diabetes-example\"> </a><div style=\"display: inline-block; background-color: #d9e0e7; padding: 6px; margin: 4px; border: 1px solid #8da1b4; border-radius: 5px; line-height: 60%\"><p style=\"margin-bottom: 0px\"/><p style=\"margin-bottom: 0px\">Profile: <a href=\"StructureDefinition-LTCCondition.html\">長期照顧－病情、問題或診斷</a></p></div><p><b>clinicalStatus</b>: <span title=\"Codes:{http://terminology.hl7.org/CodeSystem/condition-clinical active}\">Active</span></p><p><b>verificationStatus</b>: <span title=\"Codes:{http://terminology.hl7.org/CodeSystem/condition-ver-status confirmed}\">Confirmed</span></p><p><b>category</b>: <span title=\"Codes:{http://terminology.hl7.org/CodeSystem/condition-category encounter-diagnosis}\">Encounter Diagnosis</span></p><p><b>code</b>: <span title=\"Codes:{http://snomed.info/sct 44054006}\">第2型糖尿病</span></p><p><b>subject</b>: <a href=\"Patient-ltc-patient-chen-ming-hui.html\">陳明慧 Female, DoB: 1945-03-15 ( National Person Identifier: A123456789\u00a0(use:\u00a0official,\u00a0))</a></p><p><b>onset</b>: 2020-05-15</p><p><b>recorder</b>: <a href=\"PractitionerRole-ltc-practitioner-role-nurse-example.html\">PractitionerRole Registered nurse</a></p><p><b>asserter</b>: <a href=\"PractitionerRole-ltc-practitioner-role-nurse-example.html\">PractitionerRole Registered nurse</a></p><p><b>note</b>: @2024-01-15</p><blockquote><div><p>血糖控制穩定，需持續監測</p>\n</div></blockquote></div>"
      },
      "clinicalStatus" : {
        "coding" : [{
          "system" : "http://terminology.hl7.org/CodeSystem/condition-clinical",
          "code" : "active"
        }]
      },
      "verificationStatus" : {
        "coding" : [{
          "system" : "http://terminology.hl7.org/CodeSystem/condition-ver-status",
          "code" : "confirmed"
        }]
      },
      "category" : [{
        "coding" : [{
          "system" : "http://terminology.hl7.org/CodeSystem/condition-category",
          "code" : "encounter-diagnosis",
          "display" : "Encounter Diagnosis"
        }]
      }],
      "code" : {
        "coding" : [{
          "system" : "http://snomed.info/sct",
          "code" : "44054006",
          "display" : "Diabetes mellitus type 2"
        }],
        "text" : "第2型糖尿病"
      },
      "subject" : {
        "reference" : "Patient/ltc-patient-chen-ming-hui"
      },
      "onsetDateTime" : "2020-05-15",
      "recorder" : {
        "reference" : "PractitionerRole/ltc-practitioner-role-nurse-example"
      },
      "asserter" : {
        "reference" : "PractitionerRole/ltc-practitioner-role-nurse-example"
      },
      "note" : [{
        "time" : "2024-01-15",
        "text" : "血糖控制穩定，需持續監測"
      }]
    }
  },
  {
    "fullUrl" : "http://ltc-ig.fhir.tw/Condition/ltc-condition-need-assistance-example",
    "resource" : {
      "resourceType" : "Condition",
      "id" : "ltc-condition-need-assistance-example",
      "meta" : {
        "profile" : ["http://ltc-ig.fhir.tw/StructureDefinition/LTCCondition"]
      },
      "text" : {
        "status" : "generated",
        "div" : "<div xmlns=\"http://www.w3.org/1999/xhtml\"><a name=\"Condition_ltc-condition-need-assistance-example\"> </a><p class=\"res-header-id\"><b>Generated Narrative: Condition ltc-condition-need-assistance-example</b></p><a name=\"ltc-condition-need-assistance-example\"> </a><a name=\"hcltc-condition-need-assistance-example\"> </a><div style=\"display: inline-block; background-color: #d9e0e7; padding: 6px; margin: 4px; border: 1px solid #8da1b4; border-radius: 5px; line-height: 60%\"><p style=\"margin-bottom: 0px\"/><p style=\"margin-bottom: 0px\">Profile: <a href=\"StructureDefinition-LTCCondition.html\">長期照顧－病情、問題或診斷</a></p></div><p><b>clinicalStatus</b>: <span title=\"Codes:{http://terminology.hl7.org/CodeSystem/condition-clinical active}\">Active</span></p><p><b>verificationStatus</b>: <span title=\"Codes:{http://terminology.hl7.org/CodeSystem/condition-ver-status confirmed}\">Confirmed</span></p><p><b>category</b>: <span title=\"Codes:{http://terminology.hl7.org/CodeSystem/condition-category encounter-diagnosis}\">Encounter Diagnosis</span></p><p><b>severity</b>: <span title=\"Codes:{http://snomed.info/sct 24484000}\">Severe</span></p><p><b>code</b>: <span title=\"Codes:{http://snomed.info/sct 160693008}\">需要日常生活活動協助</span></p><p><b>subject</b>: <a href=\"Patient-ltc-patient-referral-example.html\">李秀芳(official) Female, DoB: 1950-03-22 ( National identifier: B987654321\u00a0(use:\u00a0official,\u00a0))</a></p><p><b>onset</b>: 2024-01-15</p><p><b>recordedDate</b>: 2024-09-15</p><p><b>note</b>: </p><blockquote><div><p>個案由於身體功能退化，在日常生活活動上需要他人協助，包括洗澡、穿衣、進食等基本活動</p>\n</div></blockquote></div>"
      },
      "clinicalStatus" : {
        "coding" : [{
          "system" : "http://terminology.hl7.org/CodeSystem/condition-clinical",
          "code" : "active"
        }]
      },
      "verificationStatus" : {
        "coding" : [{
          "system" : "http://terminology.hl7.org/CodeSystem/condition-ver-status",
          "code" : "confirmed"
        }]
      },
      "category" : [{
        "coding" : [{
          "system" : "http://terminology.hl7.org/CodeSystem/condition-category",
          "code" : "encounter-diagnosis"
        }]
      }],
      "severity" : {
        "coding" : [{
          "system" : "http://snomed.info/sct",
          "code" : "24484000",
          "display" : "Severe"
        }]
      },
      "code" : {
        "coding" : [{
          "system" : "http://snomed.info/sct",
          "code" : "160693008",
          "display" : "Needs assistance with activities of daily living"
        }],
        "text" : "需要日常生活活動協助"
      },
      "subject" : {
        "reference" : "Patient/ltc-patient-referral-example"
      },
      "onsetDateTime" : "2024-01-15",
      "recordedDate" : "2024-09-15",
      "note" : [{
        "text" : "個案由於身體功能退化，在日常生活活動上需要他人協助，包括洗澡、穿衣、進食等基本活動"
      }]
    }
  },
  {
    "fullUrl" : "http://ltc-ig.fhir.tw/CarePlan/ltc-careplan-referral-home-service-example",
    "resource" : {
      "resourceType" : "CarePlan",
      "id" : "ltc-careplan-referral-home-service-example",
      "meta" : {
        "profile" : ["http://ltc-ig.fhir.tw/StructureDefinition/LTCCarePlanReferral"]
      },
      "text" : {
        "status" : "generated",
        "div" : "<div xmlns=\"http://www.w3.org/1999/xhtml\"><a name=\"CarePlan_ltc-careplan-referral-home-service-example\"> </a><p class=\"res-header-id\"><b>Generated Narrative: CarePlan ltc-careplan-referral-home-service-example</b></p><a name=\"ltc-careplan-referral-home-service-example\"> </a><a name=\"hcltc-careplan-referral-home-service-example\"> </a><div style=\"display: inline-block; background-color: #d9e0e7; padding: 6px; margin: 4px; border: 1px solid #8da1b4; border-radius: 5px; line-height: 60%\"><p style=\"margin-bottom: 0px\"/><p style=\"margin-bottom: 0px\">Profile: <a href=\"StructureDefinition-LTCCarePlanReferral.html\">轉介單－服務種類</a></p></div><p><b>status</b>: Active</p><p><b>intent</b>: Proposal</p><p><b>category</b>: <span title=\"Codes:{https://twcore.mohw.gov.tw/ig/twcore/CodeSystem/careplan-category-tw assess-plan}\">Assessment and Plan of Treatment</span></p><p><b>subject</b>: <a href=\"Patient-ltc-patient-chen-ming-hui.html\">陳明慧 Female, DoB: 1945-03-15 ( National Person Identifier: A123456789\u00a0(use:\u00a0official,\u00a0))</a></p><p><b>period</b>: 2024-02-01 --&gt; 2024-08-01</p><p><b>author</b>: <a href=\"PractitionerRole-ltc-practitioner-role-nurse-example.html\">PractitionerRole Registered nurse</a></p><p><b>goal</b>: <a href=\"Goal-ltc-goal-mobility-improvement-example.html\">Goal: lifecycleStatus = active; description = Mobility regime; start[x] = 2024-01-15; note = 住民目前需要部分協助才能行走，期望透過復健訓練達到獨立行走的目標</a></p><blockquote><p><b>activity</b></p><h3>Details</h3><table class=\"grid\"><tr><td style=\"display: none\">-</td><td><b>Code</b></td><td><b>Status</b></td><td><b>Performer</b></td><td><b>Description</b></td></tr><tr><td style=\"display: none\">*</td><td><span title=\"Codes:{http://ltc-ig.fhir.tw/CodeSystem/ReferralCarePlanCS-TWLTC home-care-service}\">居家照顧服務</span></td><td>Not Started</td><td><a href=\"Organization-ltc-organization-example.html\">Organization 新北市私立安康老人長期照顧中心（養護型）</a></td><td>提供日常生活照顧、身體清潔、餐食準備等居家服務</td></tr></table></blockquote><blockquote><p><b>activity</b></p><h3>Details</h3><table class=\"grid\"><tr><td style=\"display: none\">-</td><td><b>Code</b></td><td><b>Status</b></td><td><b>Performer</b></td><td><b>Description</b></td></tr><tr><td style=\"display: none\">*</td><td><span title=\"Codes:{http://ltc-ig.fhir.tw/CodeSystem/ReferralCarePlanCS-TWLTC rehabilitation-service}\">復健服務</span></td><td>Not Started</td><td><a href=\"Organization-ltc-organization-example.html\">Organization 新北市私立安康老人長期照顧中心（養護型）</a></td><td>物理治療及職能治療服務</td></tr></table></blockquote><p><b>note</b>: @2024-01-20</p><blockquote><div><p>個案需要居家照顧及復健服務，由照管中心評估後安排服務提供單位</p>\n</div></blockquote></div>"
      },
      "status" : "active",
      "intent" : "proposal",
      "category" : [{
        "coding" : [{
          "system" : "https://twcore.mohw.gov.tw/ig/twcore/CodeSystem/careplan-category-tw",
          "code" : "assess-plan"
        }]
      }],
      "subject" : {
        "reference" : "Patient/ltc-patient-chen-ming-hui"
      },
      "period" : {
        "start" : "2024-02-01",
        "end" : "2024-08-01"
      },
      "author" : {
        "reference" : "PractitionerRole/ltc-practitioner-role-nurse-example"
      },
      "goal" : [{
        "reference" : "Goal/ltc-goal-mobility-improvement-example"
      }],
      "activity" : [{
        "detail" : {
          "code" : {
            "coding" : [{
              "system" : "http://ltc-ig.fhir.tw/CodeSystem/ReferralCarePlanCS-TWLTC",
              "code" : "home-care-service",
              "display" : "居家照顧服務"
            }]
          },
          "status" : "not-started",
          "performer" : [{
            "reference" : "Organization/ltc-organization-example"
          }],
          "description" : "提供日常生活照顧、身體清潔、餐食準備等居家服務"
        }
      },
      {
        "detail" : {
          "code" : {
            "coding" : [{
              "system" : "http://ltc-ig.fhir.tw/CodeSystem/ReferralCarePlanCS-TWLTC",
              "code" : "rehabilitation-service",
              "display" : "復健服務"
            }]
          },
          "status" : "not-started",
          "performer" : [{
            "reference" : "Organization/ltc-organization-example"
          }],
          "description" : "物理治療及職能治療服務"
        }
      }],
      "note" : [{
        "time" : "2024-01-20",
        "text" : "個案需要居家照顧及復健服務，由照管中心評估後安排服務提供單位"
      }]
    }
  },
  {
    "fullUrl" : "http://ltc-ig.fhir.tw/QuestionnaireResponse/ltc-questionnaire-response-adl-example",
    "resource" : {
      "resourceType" : "QuestionnaireResponse",
      "id" : "ltc-questionnaire-response-adl-example",
      "meta" : {
        "profile" : ["http://ltc-ig.fhir.tw/StructureDefinition/LTCQuestionnaireResponse"]
      },
      "text" : {
        "status" : "generated",
        "div" : "<div xmlns=\"http://www.w3.org/1999/xhtml\"><a name=\"QuestionnaireResponse_ltc-questionnaire-response-adl-example\"> </a><p class=\"res-header-id\"><b>Generated Narrative: QuestionnaireResponse ltc-questionnaire-response-adl-example</b></p><a name=\"ltc-questionnaire-response-adl-example\"> </a><a name=\"hcltc-questionnaire-response-adl-example\"> </a><div style=\"display: inline-block; background-color: #d9e0e7; padding: 6px; margin: 4px; border: 1px solid #8da1b4; border-radius: 5px; line-height: 60%\"><p style=\"margin-bottom: 0px\"/><p style=\"margin-bottom: 0px\">Profile: <a href=\"StructureDefinition-LTCQuestionnaireResponse.html\">長期照顧－問卷回覆</a></p></div><table border=\"1\" cellpadding=\"0\" cellspacing=\"0\" style=\"border: 1px #F0F0F0 solid; font-size: 11px; font-family: verdana; vertical-align: top;\"><tr style=\"border: 2px #F0F0F0 solid; font-size: 11px; font-family: verdana; vertical-align: top\"><th style=\"vertical-align: top; text-align : var(--ig-left,left); background-color: white; border: 1px #F0F0F0 solid; padding:0px 4px 0px 4px; padding-top: 3px; padding-bottom: 3px\" class=\"hierarchy\"><a href=\"https://hl7.org/fhir/R4/formats.html#table\" title=\"The linkID for the item\">LinkID</a></th><th style=\"vertical-align: top; text-align : var(--ig-left,left); background-color: white; border: 1px #F0F0F0 solid; padding:0px 4px 0px 4px; padding-top: 3px; padding-bottom: 3px\" class=\"hierarchy\"><a href=\"https://hl7.org/fhir/R4/formats.html#table\" title=\"Text for the item\">Text</a></th><th style=\"vertical-align: top; text-align : var(--ig-left,left); background-color: white; border: 1px #F0F0F0 solid; padding:0px 4px 0px 4px; padding-top: 3px; padding-bottom: 3px\" class=\"hierarchy\"><a href=\"https://hl7.org/fhir/R4/formats.html#table\" title=\"Minimum and Maximum # of times the item can appear in the instance\">Definition</a></th><th style=\"vertical-align: top; text-align : var(--ig-left,left); background-color: white; border: 1px #F0F0F0 solid; padding:0px 4px 0px 4px; padding-top: 3px; padding-bottom: 3px\" class=\"hierarchy\"><a href=\"https://hl7.org/fhir/R4/formats.html#table\" title=\"The type of the item\">Answer</a><span style=\"float: right\"><a href=\"https://hl7.org/fhir/R4/formats.html#table\" title=\"Legend for this format\"><img src=\"data:image/png;base64,\" alt=\"doco\" style=\"background-color: inherit\"/></a></span></th></tr><tr style=\"border: 1px #F0F0F0 solid; padding:0px; vertical-align: top; background-color: white\"><td style=\"vertical-align: top; text-align : var(--ig-left,left); background-color: white; border: 1px #F0F0F0 solid; padding:0px 4px 0px 4px; white-space: nowrap; background-image: url(tbl_bck1.png)\" class=\"hierarchy\"><img src=\"tbl_spacer.png\" alt=\".\" style=\"background-color: inherit\" class=\"hierarchy\"/><img src=\"icon_q_root.gif\" alt=\".\" style=\"background-color: white; background-color: inherit\" title=\"QuestionnaireResponseRoot\" class=\"hierarchy\"/> ltc-questionnaire-response-adl-example</td><td style=\"vertical-align: top; text-align : var(--ig-left,left); background-color: white; border: 1px #F0F0F0 solid; padding:0px 4px 0px 4px\" class=\"hierarchy\"></td><td style=\"vertical-align: top; text-align : var(--ig-left,left); background-color: white; border: 1px #F0F0F0 solid; padding:0px 4px 0px 4px\" class=\"hierarchy\"></td><td style=\"vertical-align: top; text-align : var(--ig-left,left); background-color: white; border: 1px #F0F0F0 solid; padding:0px 4px 0px 4px\" class=\"hierarchy\">Questionnaire:<a href=\"Questionnaire-ltc-questionnaire-adl-assessment-example.html\">日常生活能力評估量表</a></td></tr>\r\n<tr style=\"border: 1px #F0F0F0 solid; padding:0px; vertical-align: top; background-color: #F7F7F7\"><td style=\"vertical-align: top; text-align : var(--ig-left,left); background-color: #F7F7F7; border: 1px #F0F0F0 solid; padding:0px 4px 0px 4px; white-space: nowrap; background-image: url(tbl_bck10.png)\" class=\"hierarchy\"><img src=\"tbl_spacer.png\" alt=\".\" style=\"background-color: inherit\" class=\"hierarchy\"/><img src=\"tbl_vjoin.png\" alt=\".\" style=\"background-color: inherit\" class=\"hierarchy\"/><img src=\"icon-q-string.png\" alt=\".\" style=\"background-color: #F7F7F7; background-color: inherit\" title=\"Item\" class=\"hierarchy\"/> adl-1</td><td style=\"vertical-align: top; text-align : var(--ig-left,left); background-color: #F7F7F7; border: 1px #F0F0F0 solid; padding:0px 4px 0px 4px\" class=\"hierarchy\">吃飯</td><td style=\"vertical-align: top; text-align : var(--ig-left,left); background-color: #F7F7F7; border: 1px #F0F0F0 solid; padding:0px 4px 0px 4px\" class=\"hierarchy\"/><td style=\"vertical-align: top; text-align : var(--ig-left,left); background-color: #F7F7F7; border: 1px #F0F0F0 solid; padding:0px 4px 0px 4px\" class=\"hierarchy\">需要部分協助</td></tr>\r\n<tr style=\"border: 1px #F0F0F0 solid; padding:0px; vertical-align: top; background-color: white\"><td style=\"vertical-align: top; text-align : var(--ig-left,left); background-color: white; border: 1px #F0F0F0 solid; padding:0px 4px 0px 4px; white-space: nowrap; background-image: url(tbl_bck10.png)\" class=\"hierarchy\"><img src=\"tbl_spacer.png\" alt=\".\" style=\"background-color: inherit\" class=\"hierarchy\"/><img src=\"tbl_vjoin.png\" alt=\".\" style=\"background-color: inherit\" class=\"hierarchy\"/><img src=\"icon-q-string.png\" alt=\".\" style=\"background-color: white; background-color: inherit\" title=\"Item\" class=\"hierarchy\"/> adl-2</td><td style=\"vertical-align: top; text-align : var(--ig-left,left); background-color: white; border: 1px #F0F0F0 solid; padding:0px 4px 0px 4px\" class=\"hierarchy\">洗澡</td><td style=\"vertical-align: top; text-align : var(--ig-left,left); background-color: white; border: 1px #F0F0F0 solid; padding:0px 4px 0px 4px\" class=\"hierarchy\"/><td style=\"vertical-align: top; text-align : var(--ig-left,left); background-color: white; border: 1px #F0F0F0 solid; padding:0px 4px 0px 4px\" class=\"hierarchy\">完全需要協助</td></tr>\r\n<tr style=\"border: 1px #F0F0F0 solid; padding:0px; vertical-align: top; background-color: #F7F7F7\"><td style=\"vertical-align: top; text-align : var(--ig-left,left); background-color: #F7F7F7; border: 1px #F0F0F0 solid; padding:0px 4px 0px 4px; white-space: nowrap; background-image: url(tbl_bck00.png)\" class=\"hierarchy\"><img src=\"tbl_spacer.png\" alt=\".\" style=\"background-color: inherit\" class=\"hierarchy\"/><img src=\"tbl_vjoin_end.png\" alt=\".\" style=\"background-color: inherit\" class=\"hierarchy\"/><img src=\"icon-q-string.png\" alt=\".\" style=\"background-color: #F7F7F7; background-color: inherit\" title=\"Item\" class=\"hierarchy\"/> adl-3</td><td style=\"vertical-align: top; text-align : var(--ig-left,left); background-color: #F7F7F7; border: 1px #F0F0F0 solid; padding:0px 4px 0px 4px\" class=\"hierarchy\">穿脫衣物</td><td style=\"vertical-align: top; text-align : var(--ig-left,left); background-color: #F7F7F7; border: 1px #F0F0F0 solid; padding:0px 4px 0px 4px\" class=\"hierarchy\"/><td style=\"vertical-align: top; text-align : var(--ig-left,left); background-color: #F7F7F7; border: 1px #F0F0F0 solid; padding:0px 4px 0px 4px\" class=\"hierarchy\">需要部分協助</td></tr>\r\n<tr><td colspan=\"4\" class=\"hierarchy\"><br/><a href=\"https://hl7.org/fhir/R4/formats.html#table\" title=\"Legend for this format\"><img src=\"data:image/png;base64,\" alt=\"doco\" style=\"background-color: inherit\"/> Documentation for this format</a></td></tr></table></div>"
      },
      "questionnaire" : "http://ltc-ig.fhir.tw/Questionnaire/adl-assessment",
      "status" : "completed",
      "subject" : {
        "reference" : "Patient/ltc-patient-chen-ming-hui"
      },
      "authored" : "2024-01-15T10:30:00+08:00",
      "author" : {
        "reference" : "PractitionerRole/ltc-practitioner-role-nurse-example"
      },
      "source" : {
        "reference" : "RelatedPerson/ltc-related-person-primary-caregiver-example"
      },
      "item" : [{
        "linkId" : "adl-1",
        "text" : "吃飯",
        "answer" : [{
          "valueString" : "需要部分協助"
        }]
      },
      {
        "linkId" : "adl-2",
        "text" : "洗澡",
        "answer" : [{
          "valueString" : "完全需要協助"
        }]
      },
      {
        "linkId" : "adl-3",
        "text" : "穿脫衣物",
        "answer" : [{
          "valueString" : "需要部分協助"
        }]
      }]
    }
  },
  {
    "fullUrl" : "http://ltc-ig.fhir.tw/QuestionnaireResponse/ltc-questionnaire-response-iadl-referral-example",
    "resource" : {
      "resourceType" : "QuestionnaireResponse",
      "id" : "ltc-questionnaire-response-iadl-referral-example",
      "meta" : {
        "profile" : ["http://ltc-ig.fhir.tw/StructureDefinition/LTCQuestionnaireResponse"]
      },
      "text" : {
        "status" : "generated",
        "div" : "<div xmlns=\"http://www.w3.org/1999/xhtml\"><a name=\"QuestionnaireResponse_ltc-questionnaire-response-iadl-referral-example\"> </a><p class=\"res-header-id\"><b>Generated Narrative: QuestionnaireResponse ltc-questionnaire-response-iadl-referral-example</b></p><a name=\"ltc-questionnaire-response-iadl-referral-example\"> </a><a name=\"hcltc-questionnaire-response-iadl-referral-example\"> </a><div style=\"display: inline-block; background-color: #d9e0e7; padding: 6px; margin: 4px; border: 1px solid #8da1b4; border-radius: 5px; line-height: 60%\"><p style=\"margin-bottom: 0px\"/><p style=\"margin-bottom: 0px\">Profile: <a href=\"StructureDefinition-LTCQuestionnaireResponse.html\">長期照顧－問卷回覆</a></p></div><table border=\"1\" cellpadding=\"0\" cellspacing=\"0\" style=\"border: 1px #F0F0F0 solid; font-size: 11px; font-family: verdana; vertical-align: top;\"><tr style=\"border: 2px #F0F0F0 solid; font-size: 11px; font-family: verdana; vertical-align: top\"><th style=\"vertical-align: top; text-align : var(--ig-left,left); background-color: white; border: 1px #F0F0F0 solid; padding:0px 4px 0px 4px; padding-top: 3px; padding-bottom: 3px\" class=\"hierarchy\"><a href=\"https://hl7.org/fhir/R4/formats.html#table\" title=\"The linkID for the item\">LinkID</a></th><th style=\"vertical-align: top; text-align : var(--ig-left,left); background-color: white; border: 1px #F0F0F0 solid; padding:0px 4px 0px 4px; padding-top: 3px; padding-bottom: 3px\" class=\"hierarchy\"><a href=\"https://hl7.org/fhir/R4/formats.html#table\" title=\"Text for the item\">Text</a></th><th style=\"vertical-align: top; text-align : var(--ig-left,left); background-color: white; border: 1px #F0F0F0 solid; padding:0px 4px 0px 4px; padding-top: 3px; padding-bottom: 3px\" class=\"hierarchy\"><a href=\"https://hl7.org/fhir/R4/formats.html#table\" title=\"Minimum and Maximum # of times the item can appear in the instance\">Definition</a></th><th style=\"vertical-align: top; text-align : var(--ig-left,left); background-color: white; border: 1px #F0F0F0 solid; padding:0px 4px 0px 4px; padding-top: 3px; padding-bottom: 3px\" class=\"hierarchy\"><a href=\"https://hl7.org/fhir/R4/formats.html#table\" title=\"The type of the item\">Answer</a><span style=\"float: right\"><a href=\"https://hl7.org/fhir/R4/formats.html#table\" title=\"Legend for this format\"><img src=\"data:image/png;base64,\" alt=\"doco\" style=\"background-color: inherit\"/></a></span></th></tr><tr style=\"border: 1px #F0F0F0 solid; padding:0px; vertical-align: top; background-color: white\"><td style=\"vertical-align: top; text-align : var(--ig-left,left); background-color: white; border: 1px #F0F0F0 solid; padding:0px 4px 0px 4px; white-space: nowrap; background-image: url(tbl_bck1.png)\" class=\"hierarchy\"><img src=\"tbl_spacer.png\" alt=\".\" style=\"background-color: inherit\" class=\"hierarchy\"/><img src=\"icon_q_root.gif\" alt=\".\" style=\"background-color: white; background-color: inherit\" title=\"QuestionnaireResponseRoot\" class=\"hierarchy\"/> ltc-questionnaire-response-iadl-referral-example</td><td style=\"vertical-align: top; text-align : var(--ig-left,left); background-color: white; border: 1px #F0F0F0 solid; padding:0px 4px 0px 4px\" class=\"hierarchy\"></td><td style=\"vertical-align: top; text-align : var(--ig-left,left); background-color: white; border: 1px #F0F0F0 solid; padding:0px 4px 0px 4px\" class=\"hierarchy\"></td><td style=\"vertical-align: top; text-align : var(--ig-left,left); background-color: white; border: 1px #F0F0F0 solid; padding:0px 4px 0px 4px\" class=\"hierarchy\">Questionnaire:Questionnaire/ltc-questionnaire-iadl</td></tr>\r\n<tr style=\"border: 1px #F0F0F0 solid; padding:0px; vertical-align: top; background-color: #F7F7F7\"><td style=\"vertical-align: top; text-align : var(--ig-left,left); background-color: #F7F7F7; border: 1px #F0F0F0 solid; padding:0px 4px 0px 4px; white-space: nowrap; background-image: url(tbl_bck10.png)\" class=\"hierarchy\"><img src=\"tbl_spacer.png\" alt=\".\" style=\"background-color: inherit\" class=\"hierarchy\"/><img src=\"tbl_vjoin.png\" alt=\".\" style=\"background-color: inherit\" class=\"hierarchy\"/><img src=\"icon-q-string.png\" alt=\".\" style=\"background-color: #F7F7F7; background-color: inherit\" title=\"Item\" class=\"hierarchy\"/> iadl-1</td><td style=\"vertical-align: top; text-align : var(--ig-left,left); background-color: #F7F7F7; border: 1px #F0F0F0 solid; padding:0px 4px 0px 4px\" class=\"hierarchy\">購物能力</td><td style=\"vertical-align: top; text-align : var(--ig-left,left); background-color: #F7F7F7; border: 1px #F0F0F0 solid; padding:0px 4px 0px 4px\" class=\"hierarchy\"/><td style=\"vertical-align: top; text-align : var(--ig-left,left); background-color: #F7F7F7; border: 1px #F0F0F0 solid; padding:0px 4px 0px 4px\" class=\"hierarchy\"><span><span>TempCodeCS dependent: 依賴</span></span></td></tr>\r\n<tr style=\"border: 1px #F0F0F0 solid; padding:0px; vertical-align: top; background-color: white\"><td style=\"vertical-align: top; text-align : var(--ig-left,left); background-color: white; border: 1px #F0F0F0 solid; padding:0px 4px 0px 4px; white-space: nowrap; background-image: url(tbl_bck00.png)\" class=\"hierarchy\"><img src=\"tbl_spacer.png\" alt=\".\" style=\"background-color: inherit\" class=\"hierarchy\"/><img src=\"tbl_vjoin_end.png\" alt=\".\" style=\"background-color: inherit\" class=\"hierarchy\"/><img src=\"icon-q-string.png\" alt=\".\" style=\"background-color: white; background-color: inherit\" title=\"Item\" class=\"hierarchy\"/> iadl-2</td><td style=\"vertical-align: top; text-align : var(--ig-left,left); background-color: white; border: 1px #F0F0F0 solid; padding:0px 4px 0px 4px\" class=\"hierarchy\">使用電話能力</td><td style=\"vertical-align: top; text-align : var(--ig-left,left); background-color: white; border: 1px #F0F0F0 solid; padding:0px 4px 0px 4px\" class=\"hierarchy\"/><td style=\"vertical-align: top; text-align : var(--ig-left,left); background-color: white; border: 1px #F0F0F0 solid; padding:0px 4px 0px 4px\" class=\"hierarchy\"><span><span>TempCodeCS dependent: 依賴</span></span></td></tr>\r\n<tr><td colspan=\"4\" class=\"hierarchy\"><br/><a href=\"https://hl7.org/fhir/R4/formats.html#table\" title=\"Legend for this format\"><img src=\"data:image/png;base64,\" alt=\"doco\" style=\"background-color: inherit\"/> Documentation for this format</a></td></tr></table></div>"
      },
      "questionnaire" : "Questionnaire/ltc-questionnaire-iadl",
      "status" : "completed",
      "subject" : {
        "reference" : "Patient/ltc-patient-referral-example"
      },
      "authored" : "2024-09-15T14:00:00+08:00",
      "item" : [{
        "linkId" : "iadl-1",
        "text" : "購物能力",
        "answer" : [{
          "valueCoding" : {
            "system" : "http://ltc-ig.fhir.tw/CodeSystem/TempCodeCS",
            "code" : "dependent",
            "display" : "依賴"
          }
        }]
      },
      {
        "linkId" : "iadl-2",
        "text" : "使用電話能力",
        "answer" : [{
          "valueCoding" : {
            "system" : "http://ltc-ig.fhir.tw/CodeSystem/TempCodeCS",
            "code" : "dependent",
            "display" : "依賴"
          }
        }]
      }]
    }
  },
  {
    "fullUrl" : "http://ltc-ig.fhir.tw/QuestionnaireResponse/ltc-questionnaire-response-sof-example",
    "resource" : {
      "resourceType" : "QuestionnaireResponse",
      "id" : "ltc-questionnaire-response-sof-example",
      "meta" : {
        "profile" : ["http://ltc-ig.fhir.tw/StructureDefinition/LTCQuestionnaireResponse"]
      },
      "text" : {
        "status" : "generated",
        "div" : "<div xmlns=\"http://www.w3.org/1999/xhtml\"><a name=\"QuestionnaireResponse_ltc-questionnaire-response-sof-example\"> </a><p class=\"res-header-id\"><b>Generated Narrative: QuestionnaireResponse ltc-questionnaire-response-sof-example</b></p><a name=\"ltc-questionnaire-response-sof-example\"> </a><a name=\"hcltc-questionnaire-response-sof-example\"> </a><div style=\"display: inline-block; background-color: #d9e0e7; padding: 6px; margin: 4px; border: 1px solid #8da1b4; border-radius: 5px; line-height: 60%\"><p style=\"margin-bottom: 0px\"/><p style=\"margin-bottom: 0px\">Profile: <a href=\"StructureDefinition-LTCQuestionnaireResponse.html\">長期照顧－問卷回覆</a></p></div><table border=\"1\" cellpadding=\"0\" cellspacing=\"0\" style=\"border: 1px #F0F0F0 solid; font-size: 11px; font-family: verdana; vertical-align: top;\"><tr style=\"border: 2px #F0F0F0 solid; font-size: 11px; font-family: verdana; vertical-align: top\"><th style=\"vertical-align: top; text-align : var(--ig-left,left); background-color: white; border: 1px #F0F0F0 solid; padding:0px 4px 0px 4px; padding-top: 3px; padding-bottom: 3px\" class=\"hierarchy\"><a href=\"https://hl7.org/fhir/R4/formats.html#table\" title=\"The linkID for the item\">LinkID</a></th><th style=\"vertical-align: top; text-align : var(--ig-left,left); background-color: white; border: 1px #F0F0F0 solid; padding:0px 4px 0px 4px; padding-top: 3px; padding-bottom: 3px\" class=\"hierarchy\"><a href=\"https://hl7.org/fhir/R4/formats.html#table\" title=\"Text for the item\">Text</a></th><th style=\"vertical-align: top; text-align : var(--ig-left,left); background-color: white; border: 1px #F0F0F0 solid; padding:0px 4px 0px 4px; padding-top: 3px; padding-bottom: 3px\" class=\"hierarchy\"><a href=\"https://hl7.org/fhir/R4/formats.html#table\" title=\"Minimum and Maximum # of times the item can appear in the instance\">Definition</a></th><th style=\"vertical-align: top; text-align : var(--ig-left,left); background-color: white; border: 1px #F0F0F0 solid; padding:0px 4px 0px 4px; padding-top: 3px; padding-bottom: 3px\" class=\"hierarchy\"><a href=\"https://hl7.org/fhir/R4/formats.html#table\" title=\"The type of the item\">Answer</a><span style=\"float: right\"><a href=\"https://hl7.org/fhir/R4/formats.html#table\" title=\"Legend for this format\"><img src=\"data:image/png;base64,\" alt=\"doco\" style=\"background-color: inherit\"/></a></span></th></tr><tr style=\"border: 1px #F0F0F0 solid; padding:0px; vertical-align: top; background-color: white\"><td style=\"vertical-align: top; text-align : var(--ig-left,left); background-color: white; border: 1px #F0F0F0 solid; padding:0px 4px 0px 4px; white-space: nowrap; background-image: url(tbl_bck1.png)\" class=\"hierarchy\"><img src=\"tbl_spacer.png\" alt=\".\" style=\"background-color: inherit\" class=\"hierarchy\"/><img src=\"icon_q_root.gif\" alt=\".\" style=\"background-color: white; background-color: inherit\" title=\"QuestionnaireResponseRoot\" class=\"hierarchy\"/> ltc-questionnaire-response-sof-example</td><td style=\"vertical-align: top; text-align : var(--ig-left,left); background-color: white; border: 1px #F0F0F0 solid; padding:0px 4px 0px 4px\" class=\"hierarchy\"></td><td style=\"vertical-align: top; text-align : var(--ig-left,left); background-color: white; border: 1px #F0F0F0 solid; padding:0px 4px 0px 4px\" class=\"hierarchy\"></td><td style=\"vertical-align: top; text-align : var(--ig-left,left); background-color: white; border: 1px #F0F0F0 solid; padding:0px 4px 0px 4px\" class=\"hierarchy\">Questionnaire:Questionnaire/ltc-questionnaire-sof</td></tr>\r\n<tr style=\"border: 1px #F0F0F0 solid; padding:0px; vertical-align: top; background-color: #F7F7F7\"><td style=\"vertical-align: top; text-align : var(--ig-left,left); background-color: #F7F7F7; border: 1px #F0F0F0 solid; padding:0px 4px 0px 4px; white-space: nowrap; background-image: url(tbl_bck10.png)\" class=\"hierarchy\"><img src=\"tbl_spacer.png\" alt=\".\" style=\"background-color: inherit\" class=\"hierarchy\"/><img src=\"tbl_vjoin.png\" alt=\".\" style=\"background-color: inherit\" class=\"hierarchy\"/><img src=\"icon-q-string.png\" alt=\".\" style=\"background-color: #F7F7F7; background-color: inherit\" title=\"Item\" class=\"hierarchy\"/> sof-1</td><td style=\"vertical-align: top; text-align : var(--ig-left,left); background-color: #F7F7F7; border: 1px #F0F0F0 solid; padding:0px 4px 0px 4px\" class=\"hierarchy\">跌倒風險評估</td><td style=\"vertical-align: top; text-align : var(--ig-left,left); background-color: #F7F7F7; border: 1px #F0F0F0 solid; padding:0px 4px 0px 4px\" class=\"hierarchy\"/><td style=\"vertical-align: top; text-align : var(--ig-left,left); background-color: #F7F7F7; border: 1px #F0F0F0 solid; padding:0px 4px 0px 4px\" class=\"hierarchy\"><span><span>TempCodeCS high-risk: 高風險</span></span></td></tr>\r\n<tr style=\"border: 1px #F0F0F0 solid; padding:0px; vertical-align: top; background-color: white\"><td style=\"vertical-align: top; text-align : var(--ig-left,left); background-color: white; border: 1px #F0F0F0 solid; padding:0px 4px 0px 4px; white-space: nowrap; background-image: url(tbl_bck00.png)\" class=\"hierarchy\"><img src=\"tbl_spacer.png\" alt=\".\" style=\"background-color: inherit\" class=\"hierarchy\"/><img src=\"tbl_vjoin_end.png\" alt=\".\" style=\"background-color: inherit\" class=\"hierarchy\"/><img src=\"icon-q-string.png\" alt=\".\" style=\"background-color: white; background-color: inherit\" title=\"Item\" class=\"hierarchy\"/> sof-2</td><td style=\"vertical-align: top; text-align : var(--ig-left,left); background-color: white; border: 1px #F0F0F0 solid; padding:0px 4px 0px 4px\" class=\"hierarchy\">平衡能力</td><td style=\"vertical-align: top; text-align : var(--ig-left,left); background-color: white; border: 1px #F0F0F0 solid; padding:0px 4px 0px 4px\" class=\"hierarchy\"/><td style=\"vertical-align: top; text-align : var(--ig-left,left); background-color: white; border: 1px #F0F0F0 solid; padding:0px 4px 0px 4px\" class=\"hierarchy\"><span><span>TempCodeCS poor: 差</span></span></td></tr>\r\n<tr><td colspan=\"4\" class=\"hierarchy\"><br/><a href=\"https://hl7.org/fhir/R4/formats.html#table\" title=\"Legend for this format\"><img src=\"data:image/png;base64,\" alt=\"doco\" style=\"background-color: inherit\"/> Documentation for this format</a></td></tr></table></div>"
      },
      "questionnaire" : "Questionnaire/ltc-questionnaire-sof",
      "status" : "completed",
      "subject" : {
        "reference" : "Patient/ltc-patient-referral-example"
      },
      "authored" : "2024-09-15T14:10:00+08:00",
      "item" : [{
        "linkId" : "sof-1",
        "text" : "跌倒風險評估",
        "answer" : [{
          "valueCoding" : {
            "system" : "http://ltc-ig.fhir.tw/CodeSystem/TempCodeCS",
            "code" : "high-risk",
            "display" : "高風險"
          }
        }]
      },
      {
        "linkId" : "sof-2",
        "text" : "平衡能力",
        "answer" : [{
          "valueCoding" : {
            "system" : "http://ltc-ig.fhir.tw/CodeSystem/TempCodeCS",
            "code" : "poor",
            "display" : "差"
          }
        }]
      }]
    }
  },
  {
    "fullUrl" : "http://ltc-ig.fhir.tw/QuestionnaireResponse/ltc-questionnaire-response-caregiver-referral-example",
    "resource" : {
      "resourceType" : "QuestionnaireResponse",
      "id" : "ltc-questionnaire-response-caregiver-referral-example",
      "meta" : {
        "profile" : ["http://ltc-ig.fhir.tw/StructureDefinition/LTCQuestionnaireResponse"]
      },
      "text" : {
        "status" : "generated",
        "div" : "<div xmlns=\"http://www.w3.org/1999/xhtml\"><a name=\"QuestionnaireResponse_ltc-questionnaire-response-caregiver-referral-example\"> </a><p class=\"res-header-id\"><b>Generated Narrative: QuestionnaireResponse ltc-questionnaire-response-caregiver-referral-example</b></p><a name=\"ltc-questionnaire-response-caregiver-referral-example\"> </a><a name=\"hcltc-questionnaire-response-caregiver-referral-example\"> </a><div style=\"display: inline-block; background-color: #d9e0e7; padding: 6px; margin: 4px; border: 1px solid #8da1b4; border-radius: 5px; line-height: 60%\"><p style=\"margin-bottom: 0px\"/><p style=\"margin-bottom: 0px\">Profile: <a href=\"StructureDefinition-LTCQuestionnaireResponse.html\">長期照顧－問卷回覆</a></p></div><table border=\"1\" cellpadding=\"0\" cellspacing=\"0\" style=\"border: 1px #F0F0F0 solid; font-size: 11px; font-family: verdana; vertical-align: top;\"><tr style=\"border: 2px #F0F0F0 solid; font-size: 11px; font-family: verdana; vertical-align: top\"><th style=\"vertical-align: top; text-align : var(--ig-left,left); background-color: white; border: 1px #F0F0F0 solid; padding:0px 4px 0px 4px; padding-top: 3px; padding-bottom: 3px\" class=\"hierarchy\"><a href=\"https://hl7.org/fhir/R4/formats.html#table\" title=\"The linkID for the item\">LinkID</a></th><th style=\"vertical-align: top; text-align : var(--ig-left,left); background-color: white; border: 1px #F0F0F0 solid; padding:0px 4px 0px 4px; padding-top: 3px; padding-bottom: 3px\" class=\"hierarchy\"><a href=\"https://hl7.org/fhir/R4/formats.html#table\" title=\"Text for the item\">Text</a></th><th style=\"vertical-align: top; text-align : var(--ig-left,left); background-color: white; border: 1px #F0F0F0 solid; padding:0px 4px 0px 4px; padding-top: 3px; padding-bottom: 3px\" class=\"hierarchy\"><a href=\"https://hl7.org/fhir/R4/formats.html#table\" title=\"Minimum and Maximum # of times the item can appear in the instance\">Definition</a></th><th style=\"vertical-align: top; text-align : var(--ig-left,left); background-color: white; border: 1px #F0F0F0 solid; padding:0px 4px 0px 4px; padding-top: 3px; padding-bottom: 3px\" class=\"hierarchy\"><a href=\"https://hl7.org/fhir/R4/formats.html#table\" title=\"The type of the item\">Answer</a><span style=\"float: right\"><a href=\"https://hl7.org/fhir/R4/formats.html#table\" title=\"Legend for this format\"><img src=\"data:image/png;base64,\" alt=\"doco\" style=\"background-color: inherit\"/></a></span></th></tr><tr style=\"border: 1px #F0F0F0 solid; padding:0px; vertical-align: top; background-color: white\"><td style=\"vertical-align: top; text-align : var(--ig-left,left); background-color: white; border: 1px #F0F0F0 solid; padding:0px 4px 0px 4px; white-space: nowrap; background-image: url(tbl_bck1.png)\" class=\"hierarchy\"><img src=\"tbl_spacer.png\" alt=\".\" style=\"background-color: inherit\" class=\"hierarchy\"/><img src=\"icon_q_root.gif\" alt=\".\" style=\"background-color: white; background-color: inherit\" title=\"QuestionnaireResponseRoot\" class=\"hierarchy\"/> ltc-questionnaire-response-caregiver-referral-example</td><td style=\"vertical-align: top; text-align : var(--ig-left,left); background-color: white; border: 1px #F0F0F0 solid; padding:0px 4px 0px 4px\" class=\"hierarchy\"></td><td style=\"vertical-align: top; text-align : var(--ig-left,left); background-color: white; border: 1px #F0F0F0 solid; padding:0px 4px 0px 4px\" class=\"hierarchy\"></td><td style=\"vertical-align: top; text-align : var(--ig-left,left); background-color: white; border: 1px #F0F0F0 solid; padding:0px 4px 0px 4px\" class=\"hierarchy\">Questionnaire:Questionnaire/ltc-questionnaire-caregiver</td></tr>\r\n<tr style=\"border: 1px #F0F0F0 solid; padding:0px; vertical-align: top; background-color: #F7F7F7\"><td style=\"vertical-align: top; text-align : var(--ig-left,left); background-color: #F7F7F7; border: 1px #F0F0F0 solid; padding:0px 4px 0px 4px; white-space: nowrap; background-image: url(tbl_bck10.png)\" class=\"hierarchy\"><img src=\"tbl_spacer.png\" alt=\".\" style=\"background-color: inherit\" class=\"hierarchy\"/><img src=\"tbl_vjoin.png\" alt=\".\" style=\"background-color: inherit\" class=\"hierarchy\"/><img src=\"icon-q-string.png\" alt=\".\" style=\"background-color: #F7F7F7; background-color: inherit\" title=\"Item\" class=\"hierarchy\"/> caregiver-1</td><td style=\"vertical-align: top; text-align : var(--ig-left,left); background-color: #F7F7F7; border: 1px #F0F0F0 solid; padding:0px 4px 0px 4px\" class=\"hierarchy\">主要照顧者關係</td><td style=\"vertical-align: top; text-align : var(--ig-left,left); background-color: #F7F7F7; border: 1px #F0F0F0 solid; padding:0px 4px 0px 4px\" class=\"hierarchy\"/><td style=\"vertical-align: top; text-align : var(--ig-left,left); background-color: #F7F7F7; border: 1px #F0F0F0 solid; padding:0px 4px 0px 4px\" class=\"hierarchy\"><span><span>TempCodeCS spouse: 配偶</span></span></td></tr>\r\n<tr style=\"border: 1px #F0F0F0 solid; padding:0px; vertical-align: top; background-color: white\"><td style=\"vertical-align: top; text-align : var(--ig-left,left); background-color: white; border: 1px #F0F0F0 solid; padding:0px 4px 0px 4px; white-space: nowrap; background-image: url(tbl_bck00.png)\" class=\"hierarchy\"><img src=\"tbl_spacer.png\" alt=\".\" style=\"background-color: inherit\" class=\"hierarchy\"/><img src=\"tbl_vjoin_end.png\" alt=\".\" style=\"background-color: inherit\" class=\"hierarchy\"/><img src=\"icon-q-string.png\" alt=\".\" style=\"background-color: white; background-color: inherit\" title=\"Item\" class=\"hierarchy\"/> caregiver-2</td><td style=\"vertical-align: top; text-align : var(--ig-left,left); background-color: white; border: 1px #F0F0F0 solid; padding:0px 4px 0px 4px\" class=\"hierarchy\">照顧能力</td><td style=\"vertical-align: top; text-align : var(--ig-left,left); background-color: white; border: 1px #F0F0F0 solid; padding:0px 4px 0px 4px\" class=\"hierarchy\"/><td style=\"vertical-align: top; text-align : var(--ig-left,left); background-color: white; border: 1px #F0F0F0 solid; padding:0px 4px 0px 4px\" class=\"hierarchy\"><span><span>TempCodeCS limited: 有限</span></span></td></tr>\r\n<tr><td colspan=\"4\" class=\"hierarchy\"><br/><a href=\"https://hl7.org/fhir/R4/formats.html#table\" title=\"Legend for this format\"><img src=\"data:image/png;base64,\" alt=\"doco\" style=\"background-color: inherit\"/> Documentation for this format</a></td></tr></table></div>"
      },
      "questionnaire" : "Questionnaire/ltc-questionnaire-caregiver",
      "status" : "completed",
      "subject" : {
        "reference" : "Patient/ltc-patient-referral-example"
      },
      "authored" : "2024-09-15T14:20:00+08:00",
      "item" : [{
        "linkId" : "caregiver-1",
        "text" : "主要照顧者關係",
        "answer" : [{
          "valueCoding" : {
            "system" : "http://ltc-ig.fhir.tw/CodeSystem/TempCodeCS",
            "code" : "spouse",
            "display" : "配偶"
          }
        }]
      },
      {
        "linkId" : "caregiver-2",
        "text" : "照顧能力",
        "answer" : [{
          "valueCoding" : {
            "system" : "http://ltc-ig.fhir.tw/CodeSystem/TempCodeCS",
            "code" : "limited",
            "display" : "有限"
          }
        }]
      }]
    }
  },
  {
    "fullUrl" : "http://ltc-ig.fhir.tw/Encounter/ltc-encounter-example",
    "resource" : {
      "resourceType" : "Encounter",
      "id" : "ltc-encounter-example",
      "text" : {
        "status" : "generated",
        "div" : "<div xmlns=\"http://www.w3.org/1999/xhtml\"><a name=\"Encounter_ltc-encounter-example\"> </a><p class=\"res-header-id\"><b>Generated Narrative: Encounter ltc-encounter-example</b></p><a name=\"ltc-encounter-example\"> </a><a name=\"hcltc-encounter-example\"> </a><p><b>status</b>: Finished</p><p><b>class</b>: <a href=\"http://terminology.hl7.org/6.5.0/CodeSystem-v3-ActCode.html#v3-ActCode-AMB\">ActCode AMB</a>: ambulatory</p><p><b>subject</b>: <a href=\"Patient-ltc-patient-chen-ming-hui.html\">陳明慧 Female, DoB: 1945-03-15 ( National Person Identifier: A123456789\u00a0(use:\u00a0official,\u00a0))</a></p><p><b>period</b>: 2024-01-10 09:00:00+0800 --&gt; 2024-01-10 11:30:00+0800</p><p><b>reasonCode</b>: <span title=\"Codes:{http://snomed.info/sct 44054006}\">糖尿病追蹤檢查</span></p><p><b>serviceProvider</b>: <a href=\"Organization-ltc-organization-example.html\">Organization 新北市私立安康老人長期照顧中心（養護型）</a></p></div>"
      },
      "status" : "finished",
      "class" : {
        "system" : "http://terminology.hl7.org/CodeSystem/v3-ActCode",
        "code" : "AMB",
        "display" : "ambulatory"
      },
      "subject" : {
        "reference" : "Patient/ltc-patient-chen-ming-hui"
      },
      "period" : {
        "start" : "2024-01-10T09:00:00+08:00",
        "end" : "2024-01-10T11:30:00+08:00"
      },
      "reasonCode" : [{
        "coding" : [{
          "system" : "http://snomed.info/sct",
          "code" : "44054006",
          "display" : "Diabetes mellitus type 2"
        }],
        "text" : "糖尿病追蹤檢查"
      }],
      "serviceProvider" : {
        "reference" : "Organization/ltc-organization-example"
      }
    }
  },
  {
    "fullUrl" : "http://ltc-ig.fhir.tw/Practitioner/ltc-practitioner-nurse-example",
    "resource" : {
      "resourceType" : "Practitioner",
      "id" : "ltc-practitioner-nurse-example",
      "meta" : {
        "profile" : ["http://ltc-ig.fhir.tw/StructureDefinition/LTCPractitioner"]
      },
      "text" : {
        "status" : "generated",
        "div" : "<div xmlns=\"http://www.w3.org/1999/xhtml\"><a name=\"Practitioner_ltc-practitioner-nurse-example\"> </a><p class=\"res-header-id\"><b>Generated Narrative: Practitioner ltc-practitioner-nurse-example</b></p><a name=\"ltc-practitioner-nurse-example\"> </a><a name=\"hcltc-practitioner-nurse-example\"> </a><div style=\"display: inline-block; background-color: #d9e0e7; padding: 6px; margin: 4px; border: 1px solid #8da1b4; border-radius: 5px; line-height: 60%\"><p style=\"margin-bottom: 0px\"/><p style=\"margin-bottom: 0px\">Profile: <a href=\"StructureDefinition-LTCPractitioner.html\">長期照顧－照顧服務提供者</a></p></div><p><b>identifier</b>: Provider Number/N123456789\u00a0(use:\u00a0official,\u00a0)</p><p><b>active</b>: true</p><p><b>name</b>: 王美玲(Official)</p><p><b>telecom</b>: ph: 02-29412345(Work), <a href=\"mailto:meiling.wang@ltc-center.tw\">meiling.wang@ltc-center.tw</a></p><p><b>gender</b>: Female</p><h3>Qualifications</h3><table class=\"grid\"><tr><td style=\"display: none\">-</td><td><b>Identifier</b></td><td><b>Code</b></td></tr><tr><td style=\"display: none\">*</td><td><code>http://www.mohw.gov.tw/nursing-license</code>/護理執照123456</td><td><span title=\"Codes:{http://snomed.info/sct 224535009}\">Registered nurse</span></td></tr></table></div>"
      },
      "identifier" : [{
        "use" : "official",
        "type" : {
          "coding" : [{
            "system" : "http://terminology.hl7.org/CodeSystem/v2-0203",
            "code" : "PRN",
            "display" : "Provider Number"
          }]
        },
        "system" : "http://www.mohw.gov.tw",
        "value" : "N123456789"
      }],
      "active" : true,
      "name" : [{
        "use" : "official",
        "text" : "王美玲",
        "family" : "王",
        "given" : ["美玲"]
      }],
      "telecom" : [{
        "system" : "phone",
        "value" : "02-29412345",
        "use" : "work"
      },
      {
        "system" : "email",
        "value" : "meiling.wang@ltc-center.tw",
        "use" : "work"
      }],
      "gender" : "female",
      "qualification" : [{
        "identifier" : [{
          "system" : "http://www.mohw.gov.tw/nursing-license",
          "value" : "護理執照123456"
        }],
        "code" : {
          "coding" : [{
            "system" : "http://snomed.info/sct",
            "code" : "224535009",
            "display" : "Registered nurse"
          }]
        }
      }]
    }
  },
  {
    "fullUrl" : "http://ltc-ig.fhir.tw/Organization/ltc-organization-example",
    "resource" : {
      "resourceType" : "Organization",
      "id" : "ltc-organization-example",
      "meta" : {
        "profile" : ["http://ltc-ig.fhir.tw/StructureDefinition/Organization-twltc"]
      },
      "text" : {
        "status" : "generated",
        "div" : "<div xmlns=\"http://www.w3.org/1999/xhtml\"><a name=\"Organization_ltc-organization-example\"> </a><p class=\"res-header-id\"><b>Generated Narrative: Organization ltc-organization-example</b></p><a name=\"ltc-organization-example\"> </a><a name=\"hcltc-organization-example\"> </a><div style=\"display: inline-block; background-color: #d9e0e7; padding: 6px; margin: 4px; border: 1px solid #8da1b4; border-radius: 5px; line-height: 60%\"><p style=\"margin-bottom: 0px\"/><p style=\"margin-bottom: 0px\">Profile: <a href=\"StructureDefinition-Organization-twltc.html\">長期照顧－機構</a></p></div><p><b>identifier</b>: Provider Number/0131060029\u00a0(use:\u00a0usual,\u00a0)</p><p><b>active</b>: true</p><p><b>type</b>: <span title=\"Codes:{http://terminology.hl7.org/CodeSystem/organization-type prov}\">Healthcare Provider</span></p><p><b>name</b>: 新北市私立安康老人長期照顧中心（養護型）</p><p><b>telecom</b>: ph: 02-29412345(Work), fax: 02-29412346(Work)</p><p><b>address</b>: 新北市中和區安康路二段123號(work)</p><h3>Contacts</h3><table class=\"grid\"><tr><td style=\"display: none\">-</td><td><b>Purpose</b></td><td><b>Name</b></td><td><b>Telecom</b></td></tr><tr><td style=\"display: none\">*</td><td><span title=\"Codes:{http://terminology.hl7.org/CodeSystem/contactentity-type ADMIN}\">Administrative</span></td><td>志明 王 (Official)</td><td>ph: 02-29412345(Work)</td></tr></table></div>"
      },
      "identifier" : [{
        "use" : "usual",
        "type" : {
          "coding" : [{
            "system" : "http://terminology.hl7.org/CodeSystem/v2-0203",
            "code" : "PRN",
            "display" : "Provider Number"
          }]
        },
        "system" : "http://www.moi.gov.tw",
        "value" : "0131060029"
      }],
      "active" : true,
      "type" : [{
        "coding" : [{
          "system" : "http://terminology.hl7.org/CodeSystem/organization-type",
          "code" : "prov",
          "display" : "Healthcare Provider"
        }]
      }],
      "name" : "新北市私立安康老人長期照顧中心（養護型）",
      "telecom" : [{
        "system" : "phone",
        "value" : "02-29412345",
        "use" : "work"
      },
      {
        "system" : "fax",
        "value" : "02-29412346",
        "use" : "work"
      }],
      "address" : [{
        "use" : "work",
        "type" : "physical",
        "text" : "新北市中和區安康路二段123號",
        "line" : ["安康路二段123號"],
        "city" : "中和區",
        "state" : "新北市",
        "postalCode" : "23511",
        "country" : "TW"
      }],
      "contact" : [{
        "purpose" : {
          "coding" : [{
            "system" : "http://terminology.hl7.org/CodeSystem/contactentity-type",
            "code" : "ADMIN",
            "display" : "Administrative"
          }]
        },
        "name" : {
          "use" : "official",
          "family" : "王",
          "given" : ["志明"]
        },
        "telecom" : [{
          "system" : "phone",
          "value" : "02-29412345",
          "use" : "work"
        }]
      }]
    }
  },
  {
    "fullUrl" : "http://ltc-ig.fhir.tw/PractitionerRole/ltc-practitioner-role-nurse-example",
    "resource" : {
      "resourceType" : "PractitionerRole",
      "id" : "ltc-practitioner-role-nurse-example",
      "meta" : {
        "profile" : ["http://ltc-ig.fhir.tw/StructureDefinition/LTCPractitionerRole"]
      },
      "text" : {
        "status" : "generated",
        "div" : "<div xmlns=\"http://www.w3.org/1999/xhtml\"><a name=\"PractitionerRole_ltc-practitioner-role-nurse-example\"> </a><p class=\"res-header-id\"><b>Generated Narrative: PractitionerRole ltc-practitioner-role-nurse-example</b></p><a name=\"ltc-practitioner-role-nurse-example\"> </a><a name=\"hcltc-practitioner-role-nurse-example\"> </a><div style=\"display: inline-block; background-color: #d9e0e7; padding: 6px; margin: 4px; border: 1px solid #8da1b4; border-radius: 5px; line-height: 60%\"><p style=\"margin-bottom: 0px\"/><p style=\"margin-bottom: 0px\">Profile: <a href=\"StructureDefinition-LTCPractitionerRole.html\">長期照顧－服務人員角色</a></p></div><p><b>active</b>: true</p><p><b>practitioner</b>: <a href=\"Practitioner-ltc-practitioner-nurse-example.html\">Practitioner 王美玲(official)</a></p><p><b>organization</b>: <a href=\"Organization-ltc-organization-example.html\">Organization 新北市私立安康老人長期照顧中心（養護型）</a></p><p><b>code</b>: <span title=\"Codes:{http://snomed.info/sct 224535009}\">Registered nurse</span></p><p><b>specialty</b>: <span title=\"Codes:{http://snomed.info/sct 408443003}\">General medical practice</span></p><p><b>telecom</b>: ph: 02-29412345(Work), <a href=\"mailto:meiling.wang@ltc-center.tw\">meiling.wang@ltc-center.tw</a></p><blockquote><p><b>availableTime</b></p><p><b>daysOfWeek</b>: Monday, Tuesday, Wednesday, Thursday, Friday</p><p><b>availableStartTime</b>: 08:00:00</p><p><b>availableEndTime</b>: 17:00:00</p></blockquote></div>"
      },
      "active" : true,
      "practitioner" : {
        "reference" : "Practitioner/ltc-practitioner-nurse-example"
      },
      "organization" : {
        "reference" : "Organization/ltc-organization-example"
      },
      "code" : [{
        "coding" : [{
          "system" : "http://snomed.info/sct",
          "code" : "224535009",
          "display" : "Registered nurse"
        }]
      }],
      "specialty" : [{
        "coding" : [{
          "system" : "http://snomed.info/sct",
          "code" : "408443003",
          "display" : "General medical practice"
        }]
      }],
      "telecom" : [{
        "system" : "phone",
        "value" : "02-29412345",
        "use" : "work"
      },
      {
        "system" : "email",
        "value" : "meiling.wang@ltc-center.tw",
        "use" : "work"
      }],
      "availableTime" : [{
        "daysOfWeek" : ["mon",
        "tue",
        "wed",
        "thu",
        "fri"],
        "availableStartTime" : "08:00:00",
        "availableEndTime" : "17:00:00"
      }]
    }
  },
  {
    "fullUrl" : "http://ltc-ig.fhir.tw/Goal/ltc-goal-mobility-improvement-example",
    "resource" : {
      "resourceType" : "Goal",
      "id" : "ltc-goal-mobility-improvement-example",
      "meta" : {
        "profile" : ["http://ltc-ig.fhir.tw/StructureDefinition/LTCGoal"]
      },
      "text" : {
        "status" : "generated",
        "div" : "<div xmlns=\"http://www.w3.org/1999/xhtml\"><a name=\"Goal_ltc-goal-mobility-improvement-example\"> </a><p class=\"res-header-id\"><b>Generated Narrative: Goal ltc-goal-mobility-improvement-example</b></p><a name=\"ltc-goal-mobility-improvement-example\"> </a><a name=\"hcltc-goal-mobility-improvement-example\"> </a><div style=\"display: inline-block; background-color: #d9e0e7; padding: 6px; margin: 4px; border: 1px solid #8da1b4; border-radius: 5px; line-height: 60%\"><p style=\"margin-bottom: 0px\"/><p style=\"margin-bottom: 0px\">Profile: <a href=\"StructureDefinition-LTCGoal.html\">長期照顧－照顧目標</a></p></div><p><b>lifecycleStatus</b>: Active</p><p><b>description</b>: <span title=\"Codes:{http://snomed.info/sct 182856006}\">改善住民行動能力</span></p><p><b>subject</b>: <a href=\"Patient-ltc-patient-chen-ming-hui.html\">陳明慧 Female, DoB: 1945-03-15 ( National Person Identifier: A123456789\u00a0(use:\u00a0official,\u00a0))</a></p><p><b>start</b>: 2024-01-15</p><h3>Targets</h3><table class=\"grid\"><tr><td style=\"display: none\">-</td><td><b>Measure</b></td><td><b>Detail[x]</b></td><td><b>Due[x]</b></td></tr><tr><td style=\"display: none\">*</td><td><span title=\"Codes:{http://snomed.info/sct 162643002}\">Independent mobility</span></td><td>能夠獨立使用助行器行走50公尺</td><td>2024-04-15</td></tr></table><p><b>expressedBy</b>: <a href=\"PractitionerRole-ltc-practitioner-role-nurse-example.html\">PractitionerRole Registered nurse</a></p><p><b>note</b>: @2024-01-15</p><blockquote><div><p>住民目前需要部分協助才能行走，期望透過復健訓練達到獨立行走的目標</p>\n</div></blockquote></div>"
      },
      "lifecycleStatus" : "active",
      "description" : {
        "coding" : [{
          "system" : "http://snomed.info/sct",
          "code" : "182856006",
          "display" : "Mobility regime"
        }],
        "text" : "改善住民行動能力"
      },
      "subject" : {
        "reference" : "Patient/ltc-patient-chen-ming-hui"
      },
      "startDate" : "2024-01-15",
      "target" : [{
        "measure" : {
          "coding" : [{
            "system" : "http://snomed.info/sct",
            "code" : "162643002",
            "display" : "Independent mobility"
          }]
        },
        "detailString" : "能夠獨立使用助行器行走50公尺",
        "dueDate" : "2024-04-15"
      }],
      "expressedBy" : {
        "reference" : "PractitionerRole/ltc-practitioner-role-nurse-example"
      },
      "note" : [{
        "time" : "2024-01-15",
        "text" : "住民目前需要部分協助才能行走，期望透過復健訓練達到獨立行走的目標"
      }]
    }
  },
  {
    "fullUrl" : "http://ltc-ig.fhir.tw/RelatedPerson/ltc-related-person-primary-caregiver-example",
    "resource" : {
      "resourceType" : "RelatedPerson",
      "id" : "ltc-related-person-primary-caregiver-example",
      "meta" : {
        "profile" : ["http://ltc-ig.fhir.tw/StructureDefinition/LTCRelatedPerson"]
      },
      "text" : {
        "status" : "extensions",
        "div" : "<div xmlns=\"http://www.w3.org/1999/xhtml\"><a name=\"RelatedPerson_ltc-related-person-primary-caregiver-example\"> </a><p class=\"res-header-id\"><b>Generated Narrative: RelatedPerson ltc-related-person-primary-caregiver-example</b></p><a name=\"ltc-related-person-primary-caregiver-example\"> </a><a name=\"hcltc-related-person-primary-caregiver-example\"> </a><div style=\"display: inline-block; background-color: #d9e0e7; padding: 6px; margin: 4px; border: 1px solid #8da1b4; border-radius: 5px; line-height: 60%\"><p style=\"margin-bottom: 0px\"/><p style=\"margin-bottom: 0px\">Profile: <a href=\"StructureDefinition-LTCRelatedPerson.html\">長期照顧－關係人</a></p></div><p><b>是否為主要照顧者</b>: true</p><p><b>active</b>: true</p><p><b>patient</b>: <a href=\"Patient-ltc-patient-chen-ming-hui.html\">陳明慧 Female, DoB: 1945-03-15 ( National Person Identifier: A123456789\u00a0(use:\u00a0official,\u00a0))</a></p><p><b>relationship</b>: <span title=\"Codes:{http://terminology.hl7.org/CodeSystem/v3-RoleCode CHILD}\">child</span></p><p><b>name</b>: 陳志強</p><p><b>telecom</b>: ph: 0987654321(Mobile), ph: 02-27031234(Home)</p><p><b>gender</b>: Male</p><p><b>address</b>: 台北市大安區仁愛路三段55號8樓(home)</p></div>"
      },
      "extension" : [{
        "url" : "http://ltc-ig.fhir.tw/StructureDefinition/ExtRelatedPersonIsPrimary-TWLTC",
        "valueBoolean" : true
      }],
      "active" : true,
      "patient" : {
        "reference" : "Patient/ltc-patient-chen-ming-hui"
      },
      "relationship" : [{
        "coding" : [{
          "system" : "http://terminology.hl7.org/CodeSystem/v3-RoleCode",
          "code" : "CHILD",
          "display" : "child"
        }]
      }],
      "name" : [{
        "use" : "usual",
        "text" : "陳志強",
        "family" : "陳",
        "given" : ["志強"]
      }],
      "telecom" : [{
        "system" : "phone",
        "value" : "0987654321",
        "use" : "mobile"
      },
      {
        "system" : "phone",
        "value" : "02-27031234",
        "use" : "home"
      }],
      "gender" : "male",
      "address" : [{
        "use" : "home",
        "text" : "台北市大安區仁愛路三段55號8樓",
        "line" : ["仁愛路三段55號8樓"],
        "city" : "大安區",
        "state" : "台北市",
        "postalCode" : "10657",
        "country" : "TW"
      }]
    }
  }]
}