<?xml version="1.0" encoding="UTF-8"?>

<Bundle xmlns="http://hl7.org/fhir">
  <id value="ltc-bundle-referral-example"/>
  <meta>
    <profile value="http://ltc-ig.fhir.tw/StructureDefinition/LTCBundleReferral"/>
  </meta>
  <identifier>
    <system value="http://ltc-ig.fhir.tw/bundle-id"/>
    <value value="referral-bundle-001"/>
  </identifier>
  <type value="document"/>
  <timestamp value="2024-01-20T09:00:00+08:00"/>
  <entry>
    <fullUrl value="http://ltc-ig.fhir.tw/Composition/ltc-composition-referral-example"/>
    <resource>
      <Composition>
        <id value="ltc-composition-referral-example"/>
        <meta>
          <profile value="http://ltc-ig.fhir.tw/StructureDefinition/LTCCompositionReferral"/>
        </meta>
        <text>
          <status value="generated"/><div xmlns="http://www.w3.org/1999/xhtml"><a name="Composition_ltc-composition-referral-example"> </a><p class="res-header-id"><b>Generated Narrative: Composition ltc-composition-referral-example</b></p><a name="ltc-composition-referral-example"> </a><a name="hcltc-composition-referral-example"> </a><div style="display: inline-block; background-color: #d9e0e7; padding: 6px; margin: 4px; border: 1px solid #8da1b4; border-radius: 5px; line-height: 60%"><p style="margin-bottom: 0px"/><p style="margin-bottom: 0px">Profile: <a href="StructureDefinition-LTCCompositionReferral.html">長期照護管理中心個案服務初篩表/轉介單文件架構</a></p></div><p><b>status</b>: Final</p><p><b>type</b>: <span title="Codes:{http://loinc.org 11488-4}">長期照顧管理中心個案服務初篩表/轉介單</span></p><p><b>date</b>: 2024-01-20 09:00:00+0800</p><p><b>author</b>: <a href="PractitionerRole-ltc-practitioner-role-nurse-example.html">PractitionerRole Registered nurse</a></p><p><b>title</b>: 陳明慧女士長期照顧服務轉介單</p></div>
        </text>
        <status value="final"/>
        <type>
          <coding>
            <system value="http://loinc.org"/>
            <code value="11488-4"/>
            <display value="Consult note"/>
          </coding>
          <text value="長期照顧管理中心個案服務初篩表/轉介單"/>
        </type>
        <subject>
          <reference value="http://ltc-ig.fhir.tw/Patient/ltc-patient-referral-chen-ming-hui-example"/>
        </subject>
        <date value="2024-01-20T09:00:00+08:00"/>
        <author>
          <reference value="PractitionerRole/ltc-practitioner-role-nurse-example"/>
        </author>
        <title value="陳明慧女士長期照顧服務轉介單"/>
        <section>
          <title value="個案基本資料"/>
          <entry>
            <reference value="http://ltc-ig.fhir.tw/Patient/ltc-patient-referral-chen-ming-hui-example"/>
          </entry>
        </section>
        <section>
          <title value="身心障礙手冊"/>
          <entry>
            <reference value="http://ltc-ig.fhir.tw/Condition/ltc-condition-disability-example"/>
          </entry>
          <entry>
            <reference value="http://ltc-ig.fhir.tw/Condition/ltc-condition-disability-type-limb-example"/>
          </entry>
        </section>
        <section>
          <title value="管路"/>
          <entry>
            <reference value="http://ltc-ig.fhir.tw/Condition/ltc-condition-tube-nasogastric-example"/>
          </entry>
        </section>
        <section>
          <title value="壓傷"/>
          <entry>
            <reference value="http://ltc-ig.fhir.tw/Condition/ltc-condition-crush-stage2-example"/>
          </entry>
        </section>
        <section>
          <title value="居住狀況"/>
          <entry>
            <reference value="http://ltc-ig.fhir.tw/Condition/ltc-condition-residence-not-alone-example"/>
          </entry>
        </section>
        <section>
          <title value="看護"/>
          <entry>
            <reference value="http://ltc-ig.fhir.tw/Condition/ltc-condition-caregiver-family-example"/>
          </entry>
        </section>
        <section>
          <title value="疾病狀況"/>
          <entry>
            <reference value="http://ltc-ig.fhir.tw/Condition/ltc-condition-diabetes-example"/>
          </entry>
        </section>
        <section>
          <title value="案主(家)主要問題及需求"/>
          <entry>
            <reference value="http://ltc-ig.fhir.tw/Condition/ltc-condition-need-assistance-example"/>
          </entry>
        </section>
        <section>
          <title value="欲申請服務之種類"/>
          <entry>
            <reference value="http://ltc-ig.fhir.tw/CarePlan/ltc-careplan-referral-home-service-example"/>
          </entry>
        </section>
        <section>
          <title value="ADL 失能項目評估"/>
          <entry>
            <reference value="http://ltc-ig.fhir.tw/QuestionnaireResponse/ltc-questionnaire-response-adl-referral-example"/>
          </entry>
        </section>
        <section>
          <title value="IADL 失能項目評估"/>
          <entry>
            <reference value="http://ltc-ig.fhir.tw/QuestionnaireResponse/ltc-questionnaire-response-iadl-referral-example"/>
          </entry>
        </section>
        <section>
          <title value="長者衰弱評估"/>
          <entry>
            <reference value="http://ltc-ig.fhir.tw/QuestionnaireResponse/ltc-questionnaire-response-sof-example"/>
          </entry>
        </section>
        <section>
          <title value="照顧者評估"/>
          <entry>
            <reference value="http://ltc-ig.fhir.tw/QuestionnaireResponse/ltc-questionnaire-response-caregiver-referral-example"/>
          </entry>
        </section>
        <section>
          <title value="出入院情形"/>
          <entry>
            <reference value="http://ltc-ig.fhir.tw/Encounter/ltc-encounter-example"/>
          </entry>
        </section>
        <section>
          <title value="填表者/轉介者資訊及簽名欄"/>
          <entry>
            <reference value="http://ltc-ig.fhir.tw/Practitioner/ltc-practitioner-nurse-example"/>
          </entry>
        </section>
        <section>
          <title value="填表單位資訊"/>
          <entry>
            <reference value="http://ltc-ig.fhir.tw/Organization/ltc-organization-example"/>
          </entry>
        </section>
        <section>
          <title value="關係人"/>
          <entry>
            <reference value="http://ltc-ig.fhir.tw/RelatedPerson/ltc-related-person-primary-caregiver-example"/>
          </entry>
        </section>
      </Composition>
    </resource>
  </entry>
  <entry>
    <fullUrl value="http://ltc-ig.fhir.tw/Patient/ltc-patient-referral-chen-ming-hui-example"/>
    <resource>
      <Patient>
        <id value="ltc-patient-referral-chen-ming-hui-example"/>
        <meta>
          <profile value="http://ltc-ig.fhir.tw/StructureDefinition/LTCPatientReferral"/>
        </meta>
        <text>
          <status value="generated"/><div xmlns="http://www.w3.org/1999/xhtml"><a name="Patient_ltc-patient-referral-chen-ming-hui-example"> </a><p class="res-header-id"><b>Generated Narrative: Patient ltc-patient-referral-chen-ming-hui-example</b></p><a name="ltc-patient-referral-chen-ming-hui-example"> </a><a name="hcltc-patient-referral-chen-ming-hui-example"> </a><div style="display: inline-block; background-color: #d9e0e7; padding: 6px; margin: 4px; border: 1px solid #8da1b4; border-radius: 5px; line-height: 60%"><p style="margin-bottom: 0px"/><p style="margin-bottom: 0px">Profile: <a href="StructureDefinition-LTCPatientReferral.html">轉介單－個案基本資料</a></p></div><p style="border: 1px #661aff solid; background-color: #e6e6ff; padding: 10px;">陳明慧 Female, DoB: 1945-03-15 ( National Person Identifier (TWN): A123456789 (use: official, ))</p><hr/><table class="grid"><tr><td style="background-color: #f3f5da" title="Record is active">Active:</td><td colspan="3">true</td></tr><tr><td style="background-color: #f3f5da" title="Other Id (see the one above)">Other Id:</td><td colspan="3">Provider Number/R2024001 (use: official, )</td></tr><tr><td style="background-color: #f3f5da" title="Alternate names (see the one above)">Alt. Name:</td><td colspan="3">Chen Ming Hui(Official)</td></tr><tr><td style="background-color: #f3f5da" title="Ways to contact the Patient">Contact Detail</td><td colspan="3"><ul><li>ph: 0912345678(Mobile)</li><li>新北市中和區安康路二段123號3樓301室(home)</li><li>台北市大安區和平東路二段76號2樓(billing)</li></ul></td></tr><tr><td style="background-color: #f3f5da" title="Nominated Contact: Next-of-Kin">Next-of-Kin:</td><td colspan="3"><ul><li>陳志強</li><li>ph: 0987654321(Mobile)</li></ul></td></tr><tr><td style="background-color: #f3f5da" title="Patient Links">Links:</td><td colspan="3"><ul><li>Managing Organization: <a href="Organization-ltc-organization-example.html">Organization 新北市私立安康老人長期照顧中心（養護型）</a></li></ul></td></tr><tr><td style="background-color: #f3f5da" title="此 Extension 用以表述長照機構住民的經濟狀況。"><a href="StructureDefinition-ExtPatientEconomyStatus-TWLTC.html">長照機構住民經濟狀況</a></td><td colspan="3"><span title="Codes:{http://ltc-ig.fhir.tw/CodeSystem/EconomyStatusCS-TWLTC middle-class}">中產</span></td></tr></table></div>
        </text>
        <extension url="http://ltc-ig.fhir.tw/StructureDefinition/ExtPatientEconomyStatus-TWLTC">
          <valueCodeableConcept>
            <coding>
              <system value="http://ltc-ig.fhir.tw/CodeSystem/EconomyStatusCS-TWLTC"/>
              <code value="middle-class"/>
              <display value="中產"/>
            </coding>
          </valueCodeableConcept>
        </extension>
        <identifier>
          <use value="official"/>
          <type>
            <coding>
              <system value="http://terminology.hl7.org/CodeSystem/v2-0203"/>
              <code value="PRN"/>
              <display value="Provider Number"/>
            </coding>
          </type>
          <system value="http://www.ankang-ltc.tw"/>
          <value value="R2024001"/>
        </identifier>
        <identifier>
          <use value="official"/>
          <type>
            <coding>
              <system value="http://terminology.hl7.org/CodeSystem/v2-0203"/>
              <code value="NNxxx"/>
              <display value="National Person Identifier where the xxx is the ISO table 3166 3-character (alphabetic) country code"/>
            </coding>
            <text value="National Person Identifier (TWN)"/>
          </type>
          <system value="http://www.moi.gov.tw"/>
          <value value="A123456789"/>
        </identifier>
        <active value="true"/>
        <name>
          <use value="official"/>
          <text value="Chen Ming Hui"/>
        </name>
        <name>
          <use value="usual"/>
          <text value="陳明慧"/>
        </name>
        <telecom>
          <system value="phone"/>
          <value value="0912345678"/>
          <use value="mobile"/>
        </telecom>
        <gender value="female"/>
        <birthDate value="1945-03-15"/>
        <address>
          <use value="home"/>
          <text value="新北市中和區安康路二段123號3樓301室"/>
          <line value="安康路二段123號3樓301室"/>
          <city value="中和區"/>
          <state value="新北市"/>
          <postalCode value="23511"/>
          <country value="TW"/>
        </address>
        <address>
          <use value="billing"/>
          <text value="台北市大安區和平東路二段76號2樓"/>
          <line value="和平東路二段76號2樓"/>
          <city value="大安區"/>
          <state value="台北市"/>
          <postalCode value="10663"/>
          <country value="TW"/>
        </address>
        <contact>
          <relationship>
            <coding>
              <system value="http://terminology.hl7.org/CodeSystem/v2-0131"/>
              <code value="N"/>
              <display value="Next-of-Kin"/>
            </coding>
          </relationship>
          <name>
            <use value="usual"/>
            <text value="陳志強"/>
          </name>
          <telecom>
            <system value="phone"/>
            <value value="0987654321"/>
            <use value="mobile"/>
          </telecom>
        </contact>
        <managingOrganization>
          <reference value="Organization/ltc-organization-example"/>
        </managingOrganization>
      </Patient>
    </resource>
  </entry>
  <entry>
    <fullUrl value="http://ltc-ig.fhir.tw/Condition/ltc-condition-disability-example"/>
    <resource>
      <Condition>
        <id value="ltc-condition-disability-example"/>
        <meta>
          <profile value="http://ltc-ig.fhir.tw/StructureDefinition/LTCConditionDisability"/>
        </meta>
        <text>
          <status value="generated"/><div xmlns="http://www.w3.org/1999/xhtml"><a name="Condition_ltc-condition-disability-example"> </a><p class="res-header-id"><b>Generated Narrative: Condition ltc-condition-disability-example</b></p><a name="ltc-condition-disability-example"> </a><a name="hcltc-condition-disability-example"> </a><div style="display: inline-block; background-color: #d9e0e7; padding: 6px; margin: 4px; border: 1px solid #8da1b4; border-radius: 5px; line-height: 60%"><p style="margin-bottom: 0px"/><p style="margin-bottom: 0px">Profile: <a href="StructureDefinition-LTCConditionDisability.html">長期照顧－身心障礙手冊持有狀態</a></p></div><p><b>clinicalStatus</b>: <span title="Codes:{http://terminology.hl7.org/CodeSystem/condition-clinical active}">Active</span></p><p><b>verificationStatus</b>: <span title="Codes:{http://terminology.hl7.org/CodeSystem/condition-ver-status confirmed}">Confirmed</span></p><p><b>category</b>: <span title="Codes:{http://terminology.hl7.org/CodeSystem/condition-category problem-list-item}">Problem List Item</span></p><p><b>code</b>: <span title="Codes:{http://ltc-ig.fhir.tw/CodeSystem/ConditionDisabilityCS-TWLTC disability-handbook}">有身心障礙手冊</span></p><p><b>subject</b>: <a href="Patient-ltc-patient-chen-ming-hui.html">陳明慧 Female, DoB: 1945-03-15 ( National Person Identifier (TWN): A123456789 (use: official, ))</a></p><p><b>onset</b>: 2015-08-20</p><p><b>recorder</b>: <a href="PractitionerRole-ltc-practitioner-role-nurse-example.html">PractitionerRole Registered nurse</a></p><p><b>note</b>: @2024-01-15</p><blockquote><div><p>住民持有身心障礙手冊，類別為肢體障礙輕度</p>
</div></blockquote></div>
        </text>
        <clinicalStatus>
          <coding>
            <system value="http://terminology.hl7.org/CodeSystem/condition-clinical"/>
            <code value="active"/>
          </coding>
        </clinicalStatus>
        <verificationStatus>
          <coding>
            <system value="http://terminology.hl7.org/CodeSystem/condition-ver-status"/>
            <code value="confirmed"/>
          </coding>
        </verificationStatus>
        <category>
          <coding>
            <system value="http://terminology.hl7.org/CodeSystem/condition-category"/>
            <code value="problem-list-item"/>
            <display value="Problem List Item"/>
          </coding>
        </category>
        <code>
          <coding>
            <system value="http://ltc-ig.fhir.tw/CodeSystem/ConditionDisabilityCS-TWLTC"/>
            <code value="disability-handbook"/>
            <display value="有身心障礙手冊"/>
          </coding>
        </code>
        <subject>
          <reference value="Patient/ltc-patient-chen-ming-hui"/>
        </subject>
        <onsetDateTime value="2015-08-20"/>
        <recorder>
          <reference value="PractitionerRole/ltc-practitioner-role-nurse-example"/>
        </recorder>
        <note>
          <time value="2024-01-15"/>
          <text value="住民持有身心障礙手冊，類別為肢體障礙輕度"/>
        </note>
      </Condition>
    </resource>
  </entry>
  <entry>
    <fullUrl value="http://ltc-ig.fhir.tw/Condition/ltc-condition-disability-type-limb-example"/>
    <resource>
      <Condition>
        <id value="ltc-condition-disability-type-limb-example"/>
        <meta>
          <profile value="http://ltc-ig.fhir.tw/StructureDefinition/LTCConditionDisabilityType"/>
        </meta>
        <text>
          <status value="generated"/><div xmlns="http://www.w3.org/1999/xhtml"><a name="Condition_ltc-condition-disability-type-limb-example"> </a><p class="res-header-id"><b>Generated Narrative: Condition ltc-condition-disability-type-limb-example</b></p><a name="ltc-condition-disability-type-limb-example"> </a><a name="hcltc-condition-disability-type-limb-example"> </a><div style="display: inline-block; background-color: #d9e0e7; padding: 6px; margin: 4px; border: 1px solid #8da1b4; border-radius: 5px; line-height: 60%"><p style="margin-bottom: 0px"/><p style="margin-bottom: 0px">Profile: <a href="StructureDefinition-LTCConditionDisabilityType.html">長期照顧－身心障礙類型</a></p></div><p><b>clinicalStatus</b>: <span title="Codes:{http://terminology.hl7.org/CodeSystem/condition-clinical active}">Active</span></p><p><b>verificationStatus</b>: <span title="Codes:{http://terminology.hl7.org/CodeSystem/condition-ver-status confirmed}">Confirmed</span></p><p><b>category</b>: <span title="Codes:{http://terminology.hl7.org/CodeSystem/condition-category problem-list-item}">Problem List Item</span></p><p><b>severity</b>: <span title="Codes:{http://snomed.info/sct 255604002}">Mild (qualifier value)</span></p><p><b>code</b>: <span title="Codes:{http://ltc-ig.fhir.tw/CodeSystem/ConditionDisabilityTypeCS-TWLTC 07}">第七類</span></p><p><b>bodySite</b>: <span title="Codes:{http://snomed.info/sct 61685007}">Lower limb structure</span></p><p><b>subject</b>: <a href="Patient-ltc-patient-chen-ming-hui.html">陳明慧 Female, DoB: 1945-03-15 ( National Person Identifier (TWN): A123456789 (use: official, ))</a></p><p><b>onset</b>: 2015-08-20</p><p><b>recorder</b>: <a href="PractitionerRole-ltc-practitioner-role-nurse-example.html">PractitionerRole Registered nurse</a></p><p><b>note</b>: @2024-01-15</p><blockquote><div><p>左下肢功能輕度受限，影響行走功能，持有身心障礙手冊</p>
</div></blockquote></div>
        </text>
        <clinicalStatus>
          <coding>
            <system value="http://terminology.hl7.org/CodeSystem/condition-clinical"/>
            <code value="active"/>
          </coding>
        </clinicalStatus>
        <verificationStatus>
          <coding>
            <system value="http://terminology.hl7.org/CodeSystem/condition-ver-status"/>
            <code value="confirmed"/>
          </coding>
        </verificationStatus>
        <category>
          <coding>
            <system value="http://terminology.hl7.org/CodeSystem/condition-category"/>
            <code value="problem-list-item"/>
            <display value="Problem List Item"/>
          </coding>
        </category>
        <severity>
          <coding>
            <system value="http://snomed.info/sct"/>
            <code value="255604002"/>
            <display value="Mild (qualifier value)"/>
          </coding>
        </severity>
        <code>
          <coding>
            <system value="http://ltc-ig.fhir.tw/CodeSystem/ConditionDisabilityTypeCS-TWLTC"/>
            <code value="07"/>
            <display value="第七類"/>
          </coding>
        </code>
        <bodySite>
          <coding>
            <system value="http://snomed.info/sct"/>
            <code value="61685007"/>
            <display value="Lower limb structure"/>
          </coding>
        </bodySite>
        <subject>
          <reference value="Patient/ltc-patient-chen-ming-hui"/>
        </subject>
        <onsetDateTime value="2015-08-20"/>
        <recorder>
          <reference value="PractitionerRole/ltc-practitioner-role-nurse-example"/>
        </recorder>
        <note>
          <time value="2024-01-15"/>
          <text value="左下肢功能輕度受限，影響行走功能，持有身心障礙手冊"/>
        </note>
      </Condition>
    </resource>
  </entry>
  <entry>
    <fullUrl value="http://ltc-ig.fhir.tw/Condition/ltc-condition-tube-nasogastric-example"/>
    <resource>
      <Condition>
        <id value="ltc-condition-tube-nasogastric-example"/>
        <meta>
          <profile value="http://ltc-ig.fhir.tw/StructureDefinition/LTCConditionTube"/>
        </meta>
        <text>
          <status value="generated"/><div xmlns="http://www.w3.org/1999/xhtml"><a name="Condition_ltc-condition-tube-nasogastric-example"> </a><p class="res-header-id"><b>Generated Narrative: Condition ltc-condition-tube-nasogastric-example</b></p><a name="ltc-condition-tube-nasogastric-example"> </a><a name="hcltc-condition-tube-nasogastric-example"> </a><div style="display: inline-block; background-color: #d9e0e7; padding: 6px; margin: 4px; border: 1px solid #8da1b4; border-radius: 5px; line-height: 60%"><p style="margin-bottom: 0px"/><p style="margin-bottom: 0px">Profile: <a href="StructureDefinition-LTCConditionTube.html">長期照顧－管路裝設狀況</a></p></div><p><b>clinicalStatus</b>: <span title="Codes:{http://terminology.hl7.org/CodeSystem/condition-clinical active}">Active</span></p><p><b>verificationStatus</b>: <span title="Codes:{http://terminology.hl7.org/CodeSystem/condition-ver-status confirmed}">Confirmed</span></p><p><b>category</b>: <span title="Codes:{http://terminology.hl7.org/CodeSystem/condition-category problem-list-item}">Problem List Item</span></p><p><b>code</b>: <span title="Codes:{http://ltc-ig.fhir.tw/CodeSystem/ReferralConditionTubeCS-TWLTC nasogastric-tube}">鼻胃管</span></p><p><b>subject</b>: <a href="Patient-ltc-patient-chen-ming-hui.html">陳明慧 Female, DoB: 1945-03-15 ( National Person Identifier (TWN): A123456789 (use: official, ))</a></p><p><b>onset</b>: 2024-01-01</p><p><b>recorder</b>: <a href="PractitionerRole-ltc-practitioner-role-nurse-example.html">PractitionerRole Registered nurse</a></p><p><b>note</b>: @2024-01-15</p><blockquote><div><p>持續置放鼻胃管，需定期更換</p>
</div></blockquote></div>
        </text>
        <clinicalStatus>
          <coding>
            <system value="http://terminology.hl7.org/CodeSystem/condition-clinical"/>
            <code value="active"/>
          </coding>
        </clinicalStatus>
        <verificationStatus>
          <coding>
            <system value="http://terminology.hl7.org/CodeSystem/condition-ver-status"/>
            <code value="confirmed"/>
          </coding>
        </verificationStatus>
        <category>
          <coding>
            <system value="http://terminology.hl7.org/CodeSystem/condition-category"/>
            <code value="problem-list-item"/>
            <display value="Problem List Item"/>
          </coding>
        </category>
        <code>
          <coding>
            <system value="http://ltc-ig.fhir.tw/CodeSystem/ReferralConditionTubeCS-TWLTC"/>
            <code value="nasogastric-tube"/>
            <display value="鼻胃管"/>
          </coding>
        </code>
        <subject>
          <reference value="Patient/ltc-patient-chen-ming-hui"/>
        </subject>
        <onsetDateTime value="2024-01-01"/>
        <recorder>
          <reference value="PractitionerRole/ltc-practitioner-role-nurse-example"/>
        </recorder>
        <note>
          <time value="2024-01-15"/>
          <text value="持續置放鼻胃管，需定期更換"/>
        </note>
      </Condition>
    </resource>
  </entry>
  <entry>
    <fullUrl value="http://ltc-ig.fhir.tw/Condition/ltc-condition-crush-stage2-example"/>
    <resource>
      <Condition>
        <id value="ltc-condition-crush-stage2-example"/>
        <meta>
          <profile value="http://ltc-ig.fhir.tw/StructureDefinition/LTCConditionCrush"/>
        </meta>
        <text>
          <status value="generated"/><div xmlns="http://www.w3.org/1999/xhtml"><a name="Condition_ltc-condition-crush-stage2-example"> </a><p class="res-header-id"><b>Generated Narrative: Condition ltc-condition-crush-stage2-example</b></p><a name="ltc-condition-crush-stage2-example"> </a><a name="hcltc-condition-crush-stage2-example"> </a><div style="display: inline-block; background-color: #d9e0e7; padding: 6px; margin: 4px; border: 1px solid #8da1b4; border-radius: 5px; line-height: 60%"><p style="margin-bottom: 0px"/><p style="margin-bottom: 0px">Profile: <a href="StructureDefinition-LTCConditionCrush.html">長期照顧－壓傷狀況</a></p></div><p><b>clinicalStatus</b>: <span title="Codes:{http://terminology.hl7.org/CodeSystem/condition-clinical active}">Active</span></p><p><b>verificationStatus</b>: <span title="Codes:{http://terminology.hl7.org/CodeSystem/condition-ver-status confirmed}">Confirmed</span></p><p><b>category</b>: <span title="Codes:{http://terminology.hl7.org/CodeSystem/condition-category problem-list-item}">Problem List Item</span></p><p><b>code</b>: <span title="Codes:{http://ltc-ig.fhir.tw/CodeSystem/ReferralConditionCrushCS-TWLTC crush}">壓傷</span></p><p><b>bodySite</b>: <span title="Codes:{http://snomed.info/sct 54735007}">Bone structure of sacrum</span></p><p><b>subject</b>: <a href="Patient-ltc-patient-chen-ming-hui.html">陳明慧 Female, DoB: 1945-03-15 ( National Person Identifier (TWN): A123456789 (use: official, ))</a></p><p><b>onset</b>: 2024-01-10</p><p><b>recorder</b>: <a href="PractitionerRole-ltc-practitioner-role-nurse-example.html">PractitionerRole Registered nurse</a></p><p><b>note</b>: @2024-01-15</p><blockquote><div><p>部位：薦骨部位，等級：第二期，大小：3x2 cm^2，正在進行傷口護理</p>
</div></blockquote></div>
        </text>
        <clinicalStatus>
          <coding>
            <system value="http://terminology.hl7.org/CodeSystem/condition-clinical"/>
            <code value="active"/>
          </coding>
        </clinicalStatus>
        <verificationStatus>
          <coding>
            <system value="http://terminology.hl7.org/CodeSystem/condition-ver-status"/>
            <code value="confirmed"/>
          </coding>
        </verificationStatus>
        <category>
          <coding>
            <system value="http://terminology.hl7.org/CodeSystem/condition-category"/>
            <code value="problem-list-item"/>
            <display value="Problem List Item"/>
          </coding>
        </category>
        <code>
          <coding>
            <system value="http://ltc-ig.fhir.tw/CodeSystem/ReferralConditionCrushCS-TWLTC"/>
            <code value="crush"/>
            <display value="壓傷"/>
          </coding>
        </code>
        <bodySite>
          <coding>
            <system value="http://snomed.info/sct"/>
            <code value="54735007"/>
            <display value="Bone structure of sacrum"/>
          </coding>
        </bodySite>
        <subject>
          <reference value="Patient/ltc-patient-chen-ming-hui"/>
        </subject>
        <onsetDateTime value="2024-01-10"/>
        <recorder>
          <reference value="PractitionerRole/ltc-practitioner-role-nurse-example"/>
        </recorder>
        <note>
          <time value="2024-01-15"/>
          <text value="部位：薦骨部位，等級：第二期，大小：3x2 cm^2，正在進行傷口護理"/>
        </note>
      </Condition>
    </resource>
  </entry>
  <entry>
    <fullUrl value="http://ltc-ig.fhir.tw/Condition/ltc-condition-residence-not-alone-example"/>
    <resource>
      <Condition>
        <id value="ltc-condition-residence-not-alone-example"/>
        <meta>
          <profile value="http://ltc-ig.fhir.tw/StructureDefinition/LTCConditionResidence"/>
        </meta>
        <text>
          <status value="generated"/><div xmlns="http://www.w3.org/1999/xhtml"><a name="Condition_ltc-condition-residence-not-alone-example"> </a><p class="res-header-id"><b>Generated Narrative: Condition ltc-condition-residence-not-alone-example</b></p><a name="ltc-condition-residence-not-alone-example"> </a><a name="hcltc-condition-residence-not-alone-example"> </a><div style="display: inline-block; background-color: #d9e0e7; padding: 6px; margin: 4px; border: 1px solid #8da1b4; border-radius: 5px; line-height: 60%"><p style="margin-bottom: 0px"/><p style="margin-bottom: 0px">Profile: <a href="StructureDefinition-LTCConditionResidence.html">長期照顧－居住狀況</a></p></div><p><b>clinicalStatus</b>: <span title="Codes:{http://terminology.hl7.org/CodeSystem/condition-clinical active}">Active</span></p><p><b>verificationStatus</b>: <span title="Codes:{http://terminology.hl7.org/CodeSystem/condition-ver-status confirmed}">Confirmed</span></p><p><b>category</b>: <span title="Codes:{http://terminology.hl7.org/CodeSystem/condition-category problem-list-item}">Problem List Item</span></p><p><b>code</b>: <span title="Codes:{http://ltc-ig.fhir.tw/CodeSystem/ReferralConditionResidenceCS-TWLTC not-alone}">非獨居</span></p><p><b>subject</b>: <a href="Patient-ltc-patient-chen-ming-hui.html">陳明慧 Female, DoB: 1945-03-15 ( National Person Identifier (TWN): A123456789 (use: official, ))</a></p><p><b>note</b>: @2024-01-15</p><blockquote><div><p>與配偶同住</p>
</div></blockquote></div>
        </text>
        <clinicalStatus>
          <coding>
            <system value="http://terminology.hl7.org/CodeSystem/condition-clinical"/>
            <code value="active"/>
          </coding>
        </clinicalStatus>
        <verificationStatus>
          <coding>
            <system value="http://terminology.hl7.org/CodeSystem/condition-ver-status"/>
            <code value="confirmed"/>
          </coding>
        </verificationStatus>
        <category>
          <coding>
            <system value="http://terminology.hl7.org/CodeSystem/condition-category"/>
            <code value="problem-list-item"/>
            <display value="Problem List Item"/>
          </coding>
        </category>
        <code>
          <coding>
            <system value="http://ltc-ig.fhir.tw/CodeSystem/ReferralConditionResidenceCS-TWLTC"/>
            <code value="not-alone"/>
            <display value="非獨居"/>
          </coding>
        </code>
        <subject>
          <reference value="Patient/ltc-patient-chen-ming-hui"/>
        </subject>
        <note>
          <time value="2024-01-15"/>
          <text value="與配偶同住"/>
        </note>
      </Condition>
    </resource>
  </entry>
  <entry>
    <fullUrl value="http://ltc-ig.fhir.tw/Condition/ltc-condition-caregiver-family-example"/>
    <resource>
      <Condition>
        <id value="ltc-condition-caregiver-family-example"/>
        <meta>
          <profile value="http://ltc-ig.fhir.tw/StructureDefinition/LTCConditionCaregiver"/>
        </meta>
        <text>
          <status value="generated"/><div xmlns="http://www.w3.org/1999/xhtml"><a name="Condition_ltc-condition-caregiver-family-example"> </a><p class="res-header-id"><b>Generated Narrative: Condition ltc-condition-caregiver-family-example</b></p><a name="ltc-condition-caregiver-family-example"> </a><a name="hcltc-condition-caregiver-family-example"> </a><div style="display: inline-block; background-color: #d9e0e7; padding: 6px; margin: 4px; border: 1px solid #8da1b4; border-radius: 5px; line-height: 60%"><p style="margin-bottom: 0px"/><p style="margin-bottom: 0px">Profile: <a href="StructureDefinition-LTCConditionCaregiver.html">長期照顧－看護狀況</a></p></div><p><b>clinicalStatus</b>: <span title="Codes:{http://terminology.hl7.org/CodeSystem/condition-clinical active}">Active</span></p><p><b>verificationStatus</b>: <span title="Codes:{http://terminology.hl7.org/CodeSystem/condition-ver-status confirmed}">Confirmed</span></p><p><b>category</b>: <span title="Codes:{http://terminology.hl7.org/CodeSystem/condition-category problem-list-item}">Problem List Item</span></p><p><b>code</b>: <span title="Codes:{http://ltc-ig.fhir.tw/CodeSystem/ReferralConditionCaregiverCS-TWLTC caregiver}">有看護</span></p><p><b>subject</b>: <a href="Patient-ltc-patient-chen-ming-hui.html">陳明慧 Female, DoB: 1945-03-15 ( National Person Identifier (TWN): A123456789 (use: official, ))</a></p><p><b>onset</b>: 2024-01-01</p><p><b>recorder</b>: <a href="PractitionerRole-ltc-practitioner-role-nurse-example.html">PractitionerRole Registered nurse</a></p><p><b>note</b>: @2024-01-15</p><blockquote><div><p>主要照顧者為兒子，本國籍，每日照顧時間約8小時，無外籍看護</p>
</div></blockquote></div>
        </text>
        <clinicalStatus>
          <coding>
            <system value="http://terminology.hl7.org/CodeSystem/condition-clinical"/>
            <code value="active"/>
          </coding>
        </clinicalStatus>
        <verificationStatus>
          <coding>
            <system value="http://terminology.hl7.org/CodeSystem/condition-ver-status"/>
            <code value="confirmed"/>
          </coding>
        </verificationStatus>
        <category>
          <coding>
            <system value="http://terminology.hl7.org/CodeSystem/condition-category"/>
            <code value="problem-list-item"/>
            <display value="Problem List Item"/>
          </coding>
        </category>
        <code>
          <coding>
            <system value="http://ltc-ig.fhir.tw/CodeSystem/ReferralConditionCaregiverCS-TWLTC"/>
            <code value="caregiver"/>
            <display value="有看護"/>
          </coding>
        </code>
        <subject>
          <reference value="Patient/ltc-patient-chen-ming-hui"/>
        </subject>
        <onsetDateTime value="2024-01-01"/>
        <recorder>
          <reference value="PractitionerRole/ltc-practitioner-role-nurse-example"/>
        </recorder>
        <note>
          <time value="2024-01-15"/>
          <text value="主要照顧者為兒子，本國籍，每日照顧時間約8小時，無外籍看護"/>
        </note>
      </Condition>
    </resource>
  </entry>
  <entry>
    <fullUrl value="http://ltc-ig.fhir.tw/Condition/ltc-condition-diabetes-example"/>
    <resource>
      <Condition>
        <id value="ltc-condition-diabetes-example"/>
        <meta>
          <profile value="http://ltc-ig.fhir.tw/StructureDefinition/LTCConditionProblem"/>
        </meta>
        <text>
          <status value="generated"/><div xmlns="http://www.w3.org/1999/xhtml"><a name="Condition_ltc-condition-diabetes-example"> </a><p class="res-header-id"><b>Generated Narrative: Condition ltc-condition-diabetes-example</b></p><a name="ltc-condition-diabetes-example"> </a><a name="hcltc-condition-diabetes-example"> </a><div style="display: inline-block; background-color: #d9e0e7; padding: 6px; margin: 4px; border: 1px solid #8da1b4; border-radius: 5px; line-height: 60%"><p style="margin-bottom: 0px"/><p style="margin-bottom: 0px">Profile: <a href="StructureDefinition-LTCConditionProblem.html">長期照顧－主要疾病</a></p></div><p><b>clinicalStatus</b>: <span title="Codes:{http://terminology.hl7.org/CodeSystem/condition-clinical active}">Active</span></p><p><b>verificationStatus</b>: <span title="Codes:{http://terminology.hl7.org/CodeSystem/condition-ver-status confirmed}">Confirmed</span></p><p><b>category</b>: <span title="Codes:{http://terminology.hl7.org/CodeSystem/condition-category encounter-diagnosis}">Encounter Diagnosis</span></p><p><b>code</b>: <span title="Codes:{http://snomed.info/sct 44054006}">第2型糖尿病</span></p><p><b>subject</b>: <a href="Patient-ltc-patient-chen-ming-hui.html">陳明慧 Female, DoB: 1945-03-15 ( National Person Identifier (TWN): A123456789 (use: official, ))</a></p><p><b>onset</b>: 2020-05-15</p><p><b>recorder</b>: <a href="PractitionerRole-ltc-practitioner-role-nurse-example.html">PractitionerRole Registered nurse</a></p><p><b>asserter</b>: <a href="PractitionerRole-ltc-practitioner-role-nurse-example.html">PractitionerRole Registered nurse</a></p><p><b>note</b>: @2024-01-15</p><blockquote><div><p>血糖控制穩定，需持續監測</p>
</div></blockquote></div>
        </text>
        <clinicalStatus>
          <coding>
            <system value="http://terminology.hl7.org/CodeSystem/condition-clinical"/>
            <code value="active"/>
          </coding>
        </clinicalStatus>
        <verificationStatus>
          <coding>
            <system value="http://terminology.hl7.org/CodeSystem/condition-ver-status"/>
            <code value="confirmed"/>
          </coding>
        </verificationStatus>
        <category>
          <coding>
            <system value="http://terminology.hl7.org/CodeSystem/condition-category"/>
            <code value="encounter-diagnosis"/>
            <display value="Encounter Diagnosis"/>
          </coding>
        </category>
        <code>
          <coding>
            <system value="http://snomed.info/sct"/>
            <code value="44054006"/>
            <display value="Diabetes mellitus type 2"/>
          </coding>
          <text value="第2型糖尿病"/>
        </code>
        <subject>
          <reference value="Patient/ltc-patient-chen-ming-hui"/>
        </subject>
        <onsetDateTime value="2020-05-15"/>
        <recorder>
          <reference value="PractitionerRole/ltc-practitioner-role-nurse-example"/>
        </recorder>
        <asserter>
          <reference value="PractitionerRole/ltc-practitioner-role-nurse-example"/>
        </asserter>
        <note>
          <time value="2024-01-15"/>
          <text value="血糖控制穩定，需持續監測"/>
        </note>
      </Condition>
    </resource>
  </entry>
  <entry>
    <fullUrl value="http://ltc-ig.fhir.tw/Condition/ltc-condition-need-assistance-example"/>
    <resource>
      <Condition>
        <id value="ltc-condition-need-assistance-example"/>
        <meta>
          <profile value="http://ltc-ig.fhir.tw/StructureDefinition/LTCConditionNeed"/>
        </meta>
        <text>
          <status value="generated"/><div xmlns="http://www.w3.org/1999/xhtml"><a name="Condition_ltc-condition-need-assistance-example"> </a><p class="res-header-id"><b>Generated Narrative: Condition ltc-condition-need-assistance-example</b></p><a name="ltc-condition-need-assistance-example"> </a><a name="hcltc-condition-need-assistance-example"> </a><div style="display: inline-block; background-color: #d9e0e7; padding: 6px; margin: 4px; border: 1px solid #8da1b4; border-radius: 5px; line-height: 60%"><p style="margin-bottom: 0px"/><p style="margin-bottom: 0px">Profile: <a href="StructureDefinition-LTCConditionNeed.html">長期照顧－主要問題及需求</a></p></div><p><b>clinicalStatus</b>: <span title="Codes:{http://terminology.hl7.org/CodeSystem/condition-clinical active}">Active</span></p><p><b>verificationStatus</b>: <span title="Codes:{http://terminology.hl7.org/CodeSystem/condition-ver-status confirmed}">Confirmed</span></p><p><b>category</b>: <span title="Codes:{http://terminology.hl7.org/CodeSystem/condition-category problem-list-item}">Problem List Item</span></p><p><b>severity</b>: <span title="Codes:{http://snomed.info/sct 24484000}">Severe</span></p><p><b>code</b>: <span title="Codes:{http://snomed.info/sct 296391000000100}">需要協助刮鬍</span></p><p><b>subject</b>: <a href="Patient-ltc-patient-referral-example.html">李秀芳(official) Female, DoB: 1950-03-22 ( National Person Identifier (TWN): B987654321 (use: official, ))</a></p><p><b>onset</b>: 2024-01-15</p><p><b>recordedDate</b>: 2024-09-15</p><p><b>note</b>: </p><blockquote><div><p>個案由於身體功能退化，在日常生活活動上需要他人協助，包括洗澡、穿衣、進食等基本活動</p>
</div></blockquote></div>
        </text>
        <clinicalStatus>
          <coding>
            <system value="http://terminology.hl7.org/CodeSystem/condition-clinical"/>
            <code value="active"/>
          </coding>
        </clinicalStatus>
        <verificationStatus>
          <coding>
            <system value="http://terminology.hl7.org/CodeSystem/condition-ver-status"/>
            <code value="confirmed"/>
          </coding>
        </verificationStatus>
        <category>
          <coding>
            <system value="http://terminology.hl7.org/CodeSystem/condition-category"/>
            <code value="problem-list-item"/>
          </coding>
        </category>
        <severity>
          <coding>
            <system value="http://snomed.info/sct"/>
            <code value="24484000"/>
            <display value="Severe"/>
          </coding>
        </severity>
        <code>
          <coding>
            <system value="http://snomed.info/sct"/>
            <code value="296391000000100"/>
            <display value="Needs assistance with shaving (finding)"/>
          </coding>
          <text value="需要協助刮鬍"/>
        </code>
        <subject>
          <reference value="Patient/ltc-patient-referral-example"/>
        </subject>
        <onsetDateTime value="2024-01-15"/>
        <recordedDate value="2024-09-15"/>
        <note>
          <text value="個案由於身體功能退化，在日常生活活動上需要他人協助，包括洗澡、穿衣、進食等基本活動"/>
        </note>
      </Condition>
    </resource>
  </entry>
  <entry>
    <fullUrl value="http://ltc-ig.fhir.tw/CarePlan/ltc-careplan-referral-home-service-example"/>
    <resource>
      <CarePlan>
        <id value="ltc-careplan-referral-home-service-example"/>
        <meta>
          <profile value="http://ltc-ig.fhir.tw/StructureDefinition/LTCCarePlanReferral"/>
        </meta>
        <text>
          <status value="generated"/><div xmlns="http://www.w3.org/1999/xhtml"><a name="CarePlan_ltc-careplan-referral-home-service-example"> </a><p class="res-header-id"><b>Generated Narrative: CarePlan ltc-careplan-referral-home-service-example</b></p><a name="ltc-careplan-referral-home-service-example"> </a><a name="hcltc-careplan-referral-home-service-example"> </a><div style="display: inline-block; background-color: #d9e0e7; padding: 6px; margin: 4px; border: 1px solid #8da1b4; border-radius: 5px; line-height: 60%"><p style="margin-bottom: 0px"/><p style="margin-bottom: 0px">Profile: <a href="StructureDefinition-LTCCarePlanReferral.html">轉介單－服務種類</a></p></div><p><b>status</b>: Active</p><p><b>intent</b>: Proposal</p><p><b>category</b>: <span title="Codes:{https://twcore.mohw.gov.tw/ig/twcore/CodeSystem/careplan-category-tw assess-plan}">Assessment and Plan of Treatment</span></p><p><b>subject</b>: <a href="Patient-ltc-patient-chen-ming-hui.html">陳明慧 Female, DoB: 1945-03-15 ( National Person Identifier (TWN): A123456789 (use: official, ))</a></p><p><b>period</b>: 2024-02-01 --&gt; 2024-08-01</p><p><b>author</b>: <a href="PractitionerRole-ltc-practitioner-role-nurse-example.html">PractitionerRole Registered nurse</a></p><p><b>goal</b>: <a href="Goal-ltc-goal-mobility-improvement-example.html">Goal: lifecycleStatus = active; description = Progressive mobility (regime/therapy); start[x] = 2024-01-15; note = 住民目前需要部分協助才能行走，期望透過復健訓練達到獨立行走的目標</a></p><blockquote><p><b>activity</b></p><h3>Details</h3><table class="grid"><tr><td style="display: none">-</td><td><b>Code</b></td><td><b>Status</b></td><td><b>Performer</b></td><td><b>Description</b></td></tr><tr><td style="display: none">*</td><td><span title="Codes:{http://ltc-ig.fhir.tw/CodeSystem/ReferralCarePlanCS-TWLTC home-care}">居家護理</span></td><td>Not Started</td><td><a href="Organization-ltc-organization-example.html">Organization 新北市私立安康老人長期照顧中心（養護型）</a></td><td>提供居家護理服務，如換藥、傷口照護、健康評估等</td></tr></table></blockquote><blockquote><p><b>activity</b></p><h3>Details</h3><table class="grid"><tr><td style="display: none">-</td><td><b>Code</b></td><td><b>Status</b></td><td><b>Performer</b></td><td><b>Description</b></td></tr><tr><td style="display: none">*</td><td><span title="Codes:{http://ltc-ig.fhir.tw/CodeSystem/ReferralCarePlanCS-TWLTC home-swallowing}">居家吞嚥</span></td><td>Not Started</td><td><a href="Organization-ltc-organization-example.html">Organization 新北市私立安康老人長期照顧中心（養護型）</a></td><td>提供居家吞嚥訓練與相關照護服務</td></tr></table></blockquote><p><b>note</b>: @2024-01-20</p><blockquote><div><p>個案需要居家照顧及復健服務，由照管中心評估後安排服務提供單位</p>
</div></blockquote></div>
        </text>
        <status value="active"/>
        <intent value="proposal"/>
        <category>
          <coding>
            <system value="https://twcore.mohw.gov.tw/ig/twcore/CodeSystem/careplan-category-tw"/>
            <code value="assess-plan"/>
          </coding>
        </category>
        <subject>
          <reference value="Patient/ltc-patient-chen-ming-hui"/>
        </subject>
        <period>
          <start value="2024-02-01"/>
          <end value="2024-08-01"/>
        </period>
        <author>
          <reference value="PractitionerRole/ltc-practitioner-role-nurse-example"/>
        </author>
        <goal>
          <reference value="Goal/ltc-goal-mobility-improvement-example"/>
        </goal>
        <activity>
          <detail>
            <code>
              <coding>
                <system value="http://ltc-ig.fhir.tw/CodeSystem/ReferralCarePlanCS-TWLTC"/>
                <code value="home-care"/>
                <display value="居家護理"/>
              </coding>
            </code>
            <status value="not-started"/>
            <performer>
              <reference value="Organization/ltc-organization-example"/>
            </performer>
            <description value="提供居家護理服務，如換藥、傷口照護、健康評估等"/>
          </detail>
        </activity>
        <activity>
          <detail>
            <code>
              <coding>
                <system value="http://ltc-ig.fhir.tw/CodeSystem/ReferralCarePlanCS-TWLTC"/>
                <code value="home-swallowing"/>
                <display value="居家吞嚥"/>
              </coding>
            </code>
            <status value="not-started"/>
            <performer>
              <reference value="Organization/ltc-organization-example"/>
            </performer>
            <description value="提供居家吞嚥訓練與相關照護服務"/>
          </detail>
        </activity>
        <note>
          <time value="2024-01-20"/>
          <text value="個案需要居家照顧及復健服務，由照管中心評估後安排服務提供單位"/>
        </note>
      </CarePlan>
    </resource>
  </entry>
  <entry>
    <fullUrl value="http://ltc-ig.fhir.tw/QuestionnaireResponse/ltc-questionnaire-response-adl-referral-example"/>
    <resource>
      <QuestionnaireResponse>
        <id value="ltc-questionnaire-response-adl-referral-example"/>
        <meta>
          <profile value="http://ltc-ig.fhir.tw/StructureDefinition/LTCQuestionnaireResponseADL"/>
        </meta>
        <text>
          <status value="generated"/><div xmlns="http://www.w3.org/1999/xhtml"><a name="QuestionnaireResponse_ltc-questionnaire-response-adl-referral-example"> </a><p class="res-header-id"><b>Generated Narrative: QuestionnaireResponse ltc-questionnaire-response-adl-referral-example</b></p><a name="ltc-questionnaire-response-adl-referral-example"> </a><a name="hcltc-questionnaire-response-adl-referral-example"> </a><div style="display: inline-block; background-color: #d9e0e7; padding: 6px; margin: 4px; border: 1px solid #8da1b4; border-radius: 5px; line-height: 60%"><p style="margin-bottom: 0px"/><p style="margin-bottom: 0px">Profile: <a href="StructureDefinition-LTCQuestionnaireResponseADL.html">ADL 問卷回覆</a></p></div><table border="1" cellpadding="0" cellspacing="0" style="border: 1px #F0F0F0 solid; font-size: 11px; font-family: verdana; vertical-align: top;"><tr style="border: 2px #F0F0F0 solid; font-size: 11px; font-family: verdana; vertical-align: top"><th style="vertical-align: top; text-align : var(--ig-left,left); background-color: white; border: 1px #F0F0F0 solid; padding:0px 4px 0px 4px; padding-top: 3px; padding-bottom: 3px" class="hierarchy"><a href="https://hl7.org/fhir/R4/formats.html#table" title="The linkID for the item">LinkID</a></th><th style="vertical-align: top; text-align : var(--ig-left,left); background-color: white; border: 1px #F0F0F0 solid; padding:0px 4px 0px 4px; padding-top: 3px; padding-bottom: 3px" class="hierarchy"><a href="https://hl7.org/fhir/R4/formats.html#table" title="Text for the item">Text</a></th><th style="vertical-align: top; text-align : var(--ig-left,left); background-color: white; border: 1px #F0F0F0 solid; padding:0px 4px 0px 4px; padding-top: 3px; padding-bottom: 3px" class="hierarchy"><a href="https://hl7.org/fhir/R4/formats.html#table" title="Minimum and Maximum # of times the item can appear in the instance">Definition</a></th><th style="vertical-align: top; text-align : var(--ig-left,left); background-color: white; border: 1px #F0F0F0 solid; padding:0px 4px 0px 4px; padding-top: 3px; padding-bottom: 3px" class="hierarchy"><a href="https://hl7.org/fhir/R4/formats.html#table" title="The type of the item">Answer</a><span style="float: right"><a href="https://hl7.org/fhir/R4/formats.html#table" title="Legend for this format"><img src="data:image/png;base64," alt="doco" style="background-color: inherit"/></a></span></th></tr><tr style="border: 1px #F0F0F0 solid; padding:0px; vertical-align: top; background-color: white"><td style="vertical-align: top; text-align : var(--ig-left,left); background-color: white; border: 1px #F0F0F0 solid; padding:0px 4px 0px 4px; white-space: nowrap; background-image: url(tbl_bck1.png)" class="hierarchy"><img src="tbl_spacer.png" alt="." style="background-color: inherit" class="hierarchy"/><img src="icon_q_root.gif" alt="." style="background-color: white; background-color: inherit" title="QuestionnaireResponseRoot" class="hierarchy"/> ltc-questionnaire-response-adl-referral-example</td><td style="vertical-align: top; text-align : var(--ig-left,left); background-color: white; border: 1px #F0F0F0 solid; padding:0px 4px 0px 4px" class="hierarchy"></td><td style="vertical-align: top; text-align : var(--ig-left,left); background-color: white; border: 1px #F0F0F0 solid; padding:0px 4px 0px 4px" class="hierarchy"></td><td style="vertical-align: top; text-align : var(--ig-left,left); background-color: white; border: 1px #F0F0F0 solid; padding:0px 4px 0px 4px" class="hierarchy">Questionnaire:<a href="Questionnaire-ltc-questionnaire-adl-assessment-example.html">日常生活能力評估量表</a></td></tr>
<tr style="border: 1px #F0F0F0 solid; padding:0px; vertical-align: top; background-color: #F7F7F7"><td style="vertical-align: top; text-align : var(--ig-left,left); background-color: #F7F7F7; border: 1px #F0F0F0 solid; padding:0px 4px 0px 4px; white-space: nowrap; background-image: url(tbl_bck10.png)" class="hierarchy"><img src="tbl_spacer.png" alt="." style="background-color: inherit" class="hierarchy"/><img src="tbl_vjoin.png" alt="." style="background-color: inherit" class="hierarchy"/><img src="icon-q-string.png" alt="." style="background-color: #F7F7F7; background-color: inherit" title="Item" class="hierarchy"/> E1</td><td style="vertical-align: top; text-align : var(--ig-left,left); background-color: #F7F7F7; border: 1px #F0F0F0 solid; padding:0px 4px 0px 4px" class="hierarchy">吃飯</td><td style="vertical-align: top; text-align : var(--ig-left,left); background-color: #F7F7F7; border: 1px #F0F0F0 solid; padding:0px 4px 0px 4px" class="hierarchy"/><td style="vertical-align: top; text-align : var(--ig-left,left); background-color: #F7F7F7; border: 1px #F0F0F0 solid; padding:0px 4px 0px 4px" class="hierarchy">5</td></tr>
<tr style="border: 1px #F0F0F0 solid; padding:0px; vertical-align: top; background-color: white"><td style="vertical-align: top; text-align : var(--ig-left,left); background-color: white; border: 1px #F0F0F0 solid; padding:0px 4px 0px 4px; white-space: nowrap; background-image: url(tbl_bck10.png)" class="hierarchy"><img src="tbl_spacer.png" alt="." style="background-color: inherit" class="hierarchy"/><img src="tbl_vjoin.png" alt="." style="background-color: inherit" class="hierarchy"/><img src="icon-q-string.png" alt="." style="background-color: white; background-color: inherit" title="Item" class="hierarchy"/> E2</td><td style="vertical-align: top; text-align : var(--ig-left,left); background-color: white; border: 1px #F0F0F0 solid; padding:0px 4px 0px 4px" class="hierarchy">洗澡</td><td style="vertical-align: top; text-align : var(--ig-left,left); background-color: white; border: 1px #F0F0F0 solid; padding:0px 4px 0px 4px" class="hierarchy"/><td style="vertical-align: top; text-align : var(--ig-left,left); background-color: white; border: 1px #F0F0F0 solid; padding:0px 4px 0px 4px" class="hierarchy">0</td></tr>
<tr style="border: 1px #F0F0F0 solid; padding:0px; vertical-align: top; background-color: #F7F7F7"><td style="vertical-align: top; text-align : var(--ig-left,left); background-color: #F7F7F7; border: 1px #F0F0F0 solid; padding:0px 4px 0px 4px; white-space: nowrap; background-image: url(tbl_bck10.png)" class="hierarchy"><img src="tbl_spacer.png" alt="." style="background-color: inherit" class="hierarchy"/><img src="tbl_vjoin.png" alt="." style="background-color: inherit" class="hierarchy"/><img src="icon-q-string.png" alt="." style="background-color: #F7F7F7; background-color: inherit" title="Item" class="hierarchy"/> E3</td><td style="vertical-align: top; text-align : var(--ig-left,left); background-color: #F7F7F7; border: 1px #F0F0F0 solid; padding:0px 4px 0px 4px" class="hierarchy">穿脫衣物</td><td style="vertical-align: top; text-align : var(--ig-left,left); background-color: #F7F7F7; border: 1px #F0F0F0 solid; padding:0px 4px 0px 4px" class="hierarchy"/><td style="vertical-align: top; text-align : var(--ig-left,left); background-color: #F7F7F7; border: 1px #F0F0F0 solid; padding:0px 4px 0px 4px" class="hierarchy">0</td></tr>
<tr style="border: 1px #F0F0F0 solid; padding:0px; vertical-align: top; background-color: white"><td style="vertical-align: top; text-align : var(--ig-left,left); background-color: white; border: 1px #F0F0F0 solid; padding:0px 4px 0px 4px; white-space: nowrap; background-image: url(tbl_bck10.png)" class="hierarchy"><img src="tbl_spacer.png" alt="." style="background-color: inherit" class="hierarchy"/><img src="tbl_vjoin.png" alt="." style="background-color: inherit" class="hierarchy"/><img src="icon-q-string.png" alt="." style="background-color: white; background-color: inherit" title="Item" class="hierarchy"/> E4</td><td style="vertical-align: top; text-align : var(--ig-left,left); background-color: white; border: 1px #F0F0F0 solid; padding:0px 4px 0px 4px" class="hierarchy">個人修飾</td><td style="vertical-align: top; text-align : var(--ig-left,left); background-color: white; border: 1px #F0F0F0 solid; padding:0px 4px 0px 4px" class="hierarchy"/><td style="vertical-align: top; text-align : var(--ig-left,left); background-color: white; border: 1px #F0F0F0 solid; padding:0px 4px 0px 4px" class="hierarchy">5</td></tr>
<tr style="border: 1px #F0F0F0 solid; padding:0px; vertical-align: top; background-color: #F7F7F7"><td style="vertical-align: top; text-align : var(--ig-left,left); background-color: #F7F7F7; border: 1px #F0F0F0 solid; padding:0px 4px 0px 4px; white-space: nowrap; background-image: url(tbl_bck10.png)" class="hierarchy"><img src="tbl_spacer.png" alt="." style="background-color: inherit" class="hierarchy"/><img src="tbl_vjoin.png" alt="." style="background-color: inherit" class="hierarchy"/><img src="icon-q-string.png" alt="." style="background-color: #F7F7F7; background-color: inherit" title="Item" class="hierarchy"/> E5</td><td style="vertical-align: top; text-align : var(--ig-left,left); background-color: #F7F7F7; border: 1px #F0F0F0 solid; padding:0px 4px 0px 4px" class="hierarchy">大便控制</td><td style="vertical-align: top; text-align : var(--ig-left,left); background-color: #F7F7F7; border: 1px #F0F0F0 solid; padding:0px 4px 0px 4px" class="hierarchy"/><td style="vertical-align: top; text-align : var(--ig-left,left); background-color: #F7F7F7; border: 1px #F0F0F0 solid; padding:0px 4px 0px 4px" class="hierarchy">10</td></tr>
<tr style="border: 1px #F0F0F0 solid; padding:0px; vertical-align: top; background-color: white"><td style="vertical-align: top; text-align : var(--ig-left,left); background-color: white; border: 1px #F0F0F0 solid; padding:0px 4px 0px 4px; white-space: nowrap; background-image: url(tbl_bck10.png)" class="hierarchy"><img src="tbl_spacer.png" alt="." style="background-color: inherit" class="hierarchy"/><img src="tbl_vjoin.png" alt="." style="background-color: inherit" class="hierarchy"/><img src="icon-q-string.png" alt="." style="background-color: white; background-color: inherit" title="Item" class="hierarchy"/> E6</td><td style="vertical-align: top; text-align : var(--ig-left,left); background-color: white; border: 1px #F0F0F0 solid; padding:0px 4px 0px 4px" class="hierarchy">小便控制</td><td style="vertical-align: top; text-align : var(--ig-left,left); background-color: white; border: 1px #F0F0F0 solid; padding:0px 4px 0px 4px" class="hierarchy"/><td style="vertical-align: top; text-align : var(--ig-left,left); background-color: white; border: 1px #F0F0F0 solid; padding:0px 4px 0px 4px" class="hierarchy">5</td></tr>
<tr style="border: 1px #F0F0F0 solid; padding:0px; vertical-align: top; background-color: #F7F7F7"><td style="vertical-align: top; text-align : var(--ig-left,left); background-color: #F7F7F7; border: 1px #F0F0F0 solid; padding:0px 4px 0px 4px; white-space: nowrap; background-image: url(tbl_bck10.png)" class="hierarchy"><img src="tbl_spacer.png" alt="." style="background-color: inherit" class="hierarchy"/><img src="tbl_vjoin.png" alt="." style="background-color: inherit" class="hierarchy"/><img src="icon-q-string.png" alt="." style="background-color: #F7F7F7; background-color: inherit" title="Item" class="hierarchy"/> E7</td><td style="vertical-align: top; text-align : var(--ig-left,left); background-color: #F7F7F7; border: 1px #F0F0F0 solid; padding:0px 4px 0px 4px" class="hierarchy">上廁所</td><td style="vertical-align: top; text-align : var(--ig-left,left); background-color: #F7F7F7; border: 1px #F0F0F0 solid; padding:0px 4px 0px 4px" class="hierarchy"/><td style="vertical-align: top; text-align : var(--ig-left,left); background-color: #F7F7F7; border: 1px #F0F0F0 solid; padding:0px 4px 0px 4px" class="hierarchy">5</td></tr>
<tr style="border: 1px #F0F0F0 solid; padding:0px; vertical-align: top; background-color: white"><td style="vertical-align: top; text-align : var(--ig-left,left); background-color: white; border: 1px #F0F0F0 solid; padding:0px 4px 0px 4px; white-space: nowrap; background-image: url(tbl_bck10.png)" class="hierarchy"><img src="tbl_spacer.png" alt="." style="background-color: inherit" class="hierarchy"/><img src="tbl_vjoin.png" alt="." style="background-color: inherit" class="hierarchy"/><img src="icon-q-string.png" alt="." style="background-color: white; background-color: inherit" title="Item" class="hierarchy"/> E8</td><td style="vertical-align: top; text-align : var(--ig-left,left); background-color: white; border: 1px #F0F0F0 solid; padding:0px 4px 0px 4px" class="hierarchy">移位</td><td style="vertical-align: top; text-align : var(--ig-left,left); background-color: white; border: 1px #F0F0F0 solid; padding:0px 4px 0px 4px" class="hierarchy"/><td style="vertical-align: top; text-align : var(--ig-left,left); background-color: white; border: 1px #F0F0F0 solid; padding:0px 4px 0px 4px" class="hierarchy">10</td></tr>
<tr style="border: 1px #F0F0F0 solid; padding:0px; vertical-align: top; background-color: #F7F7F7"><td style="vertical-align: top; text-align : var(--ig-left,left); background-color: #F7F7F7; border: 1px #F0F0F0 solid; padding:0px 4px 0px 4px; white-space: nowrap; background-image: url(tbl_bck10.png)" class="hierarchy"><img src="tbl_spacer.png" alt="." style="background-color: inherit" class="hierarchy"/><img src="tbl_vjoin.png" alt="." style="background-color: inherit" class="hierarchy"/><img src="icon-q-string.png" alt="." style="background-color: #F7F7F7; background-color: inherit" title="Item" class="hierarchy"/> E9</td><td style="vertical-align: top; text-align : var(--ig-left,left); background-color: #F7F7F7; border: 1px #F0F0F0 solid; padding:0px 4px 0px 4px" class="hierarchy">走路</td><td style="vertical-align: top; text-align : var(--ig-left,left); background-color: #F7F7F7; border: 1px #F0F0F0 solid; padding:0px 4px 0px 4px" class="hierarchy"/><td style="vertical-align: top; text-align : var(--ig-left,left); background-color: #F7F7F7; border: 1px #F0F0F0 solid; padding:0px 4px 0px 4px" class="hierarchy">10</td></tr>
<tr style="border: 1px #F0F0F0 solid; padding:0px; vertical-align: top; background-color: white"><td style="vertical-align: top; text-align : var(--ig-left,left); background-color: white; border: 1px #F0F0F0 solid; padding:0px 4px 0px 4px; white-space: nowrap; background-image: url(tbl_bck10.png)" class="hierarchy"><img src="tbl_spacer.png" alt="." style="background-color: inherit" class="hierarchy"/><img src="tbl_vjoin.png" alt="." style="background-color: inherit" class="hierarchy"/><img src="icon-q-string.png" alt="." style="background-color: white; background-color: inherit" title="Item" class="hierarchy"/> E10</td><td style="vertical-align: top; text-align : var(--ig-left,left); background-color: white; border: 1px #F0F0F0 solid; padding:0px 4px 0px 4px" class="hierarchy">上下樓梯</td><td style="vertical-align: top; text-align : var(--ig-left,left); background-color: white; border: 1px #F0F0F0 solid; padding:0px 4px 0px 4px" class="hierarchy"/><td style="vertical-align: top; text-align : var(--ig-left,left); background-color: white; border: 1px #F0F0F0 solid; padding:0px 4px 0px 4px" class="hierarchy">5</td></tr>
<tr style="border: 1px #F0F0F0 solid; padding:0px; vertical-align: top; background-color: #F7F7F7"><td style="vertical-align: top; text-align : var(--ig-left,left); background-color: #F7F7F7; border: 1px #F0F0F0 solid; padding:0px 4px 0px 4px; white-space: nowrap; background-image: url(tbl_bck00.png)" class="hierarchy"><img src="tbl_spacer.png" alt="." style="background-color: inherit" class="hierarchy"/><img src="tbl_vjoin_end.png" alt="." style="background-color: inherit" class="hierarchy"/><img src="icon-q-string.png" alt="." style="background-color: #F7F7F7; background-color: inherit" title="Item" class="hierarchy"/> E11</td><td style="vertical-align: top; text-align : var(--ig-left,left); background-color: #F7F7F7; border: 1px #F0F0F0 solid; padding:0px 4px 0px 4px" class="hierarchy">床椅移位</td><td style="vertical-align: top; text-align : var(--ig-left,left); background-color: #F7F7F7; border: 1px #F0F0F0 solid; padding:0px 4px 0px 4px" class="hierarchy"/><td style="vertical-align: top; text-align : var(--ig-left,left); background-color: #F7F7F7; border: 1px #F0F0F0 solid; padding:0px 4px 0px 4px" class="hierarchy">10</td></tr>
<tr><td colspan="4" class="hierarchy"><br/><a href="https://hl7.org/fhir/R4/formats.html#table" title="Legend for this format"><img src="data:image/png;base64," alt="doco" style="background-color: inherit"/> Documentation for this format</a></td></tr></table></div>
        </text>
        <questionnaire value="http://ltc-ig.fhir.tw/Questionnaire/ltc-questionnaire-adl-assessment-example"/>
        <status value="completed"/>
        <subject>
          <reference value="Patient/ltc-patient-referral-example"/>
        </subject>
        <authored value="2024-09-15T14:05:00+08:00"/>
        <item>
          <linkId value="E1"/>
          <text value="吃飯"/>
          <answer>
            <valueInteger value="5"/>
          </answer>
        </item>
        <item>
          <linkId value="E2"/>
          <text value="洗澡"/>
          <answer>
            <valueInteger value="0"/>
          </answer>
        </item>
        <item>
          <linkId value="E3"/>
          <text value="穿脫衣物"/>
          <answer>
            <valueInteger value="0"/>
          </answer>
        </item>
        <item>
          <linkId value="E4"/>
          <text value="個人修飾"/>
          <answer>
            <valueInteger value="5"/>
          </answer>
        </item>
        <item>
          <linkId value="E5"/>
          <text value="大便控制"/>
          <answer>
            <valueInteger value="10"/>
          </answer>
        </item>
        <item>
          <linkId value="E6"/>
          <text value="小便控制"/>
          <answer>
            <valueInteger value="5"/>
          </answer>
        </item>
        <item>
          <linkId value="E7"/>
          <text value="上廁所"/>
          <answer>
            <valueInteger value="5"/>
          </answer>
        </item>
        <item>
          <linkId value="E8"/>
          <text value="移位"/>
          <answer>
            <valueInteger value="10"/>
          </answer>
        </item>
        <item>
          <linkId value="E9"/>
          <text value="走路"/>
          <answer>
            <valueInteger value="10"/>
          </answer>
        </item>
        <item>
          <linkId value="E10"/>
          <text value="上下樓梯"/>
          <answer>
            <valueInteger value="5"/>
          </answer>
        </item>
        <item>
          <linkId value="E11"/>
          <text value="床椅移位"/>
          <answer>
            <valueInteger value="10"/>
          </answer>
        </item>
      </QuestionnaireResponse>
    </resource>
  </entry>
  <entry>
    <fullUrl value="http://ltc-ig.fhir.tw/QuestionnaireResponse/ltc-questionnaire-response-iadl-referral-example"/>
    <resource>
      <QuestionnaireResponse>
        <id value="ltc-questionnaire-response-iadl-referral-example"/>
        <meta>
          <profile value="http://ltc-ig.fhir.tw/StructureDefinition/LTCQuestionnaireResponseIADL"/>
        </meta>
        <text>
          <status value="generated"/><div xmlns="http://www.w3.org/1999/xhtml"><a name="QuestionnaireResponse_ltc-questionnaire-response-iadl-referral-example"> </a><p class="res-header-id"><b>Generated Narrative: QuestionnaireResponse ltc-questionnaire-response-iadl-referral-example</b></p><a name="ltc-questionnaire-response-iadl-referral-example"> </a><a name="hcltc-questionnaire-response-iadl-referral-example"> </a><div style="display: inline-block; background-color: #d9e0e7; padding: 6px; margin: 4px; border: 1px solid #8da1b4; border-radius: 5px; line-height: 60%"><p style="margin-bottom: 0px"/><p style="margin-bottom: 0px">Profile: <a href="StructureDefinition-LTCQuestionnaireResponseIADL.html">IADL 問卷回覆</a></p></div><table border="1" cellpadding="0" cellspacing="0" style="border: 1px #F0F0F0 solid; font-size: 11px; font-family: verdana; vertical-align: top;"><tr style="border: 2px #F0F0F0 solid; font-size: 11px; font-family: verdana; vertical-align: top"><th style="vertical-align: top; text-align : var(--ig-left,left); background-color: white; border: 1px #F0F0F0 solid; padding:0px 4px 0px 4px; padding-top: 3px; padding-bottom: 3px" class="hierarchy"><a href="https://hl7.org/fhir/R4/formats.html#table" title="The linkID for the item">LinkID</a></th><th style="vertical-align: top; text-align : var(--ig-left,left); background-color: white; border: 1px #F0F0F0 solid; padding:0px 4px 0px 4px; padding-top: 3px; padding-bottom: 3px" class="hierarchy"><a href="https://hl7.org/fhir/R4/formats.html#table" title="Text for the item">Text</a></th><th style="vertical-align: top; text-align : var(--ig-left,left); background-color: white; border: 1px #F0F0F0 solid; padding:0px 4px 0px 4px; padding-top: 3px; padding-bottom: 3px" class="hierarchy"><a href="https://hl7.org/fhir/R4/formats.html#table" title="Minimum and Maximum # of times the item can appear in the instance">Definition</a></th><th style="vertical-align: top; text-align : var(--ig-left,left); background-color: white; border: 1px #F0F0F0 solid; padding:0px 4px 0px 4px; padding-top: 3px; padding-bottom: 3px" class="hierarchy"><a href="https://hl7.org/fhir/R4/formats.html#table" title="The type of the item">Answer</a><span style="float: right"><a href="https://hl7.org/fhir/R4/formats.html#table" title="Legend for this format"><img src="data:image/png;base64," alt="doco" style="background-color: inherit"/></a></span></th></tr><tr style="border: 1px #F0F0F0 solid; padding:0px; vertical-align: top; background-color: white"><td style="vertical-align: top; text-align : var(--ig-left,left); background-color: white; border: 1px #F0F0F0 solid; padding:0px 4px 0px 4px; white-space: nowrap; background-image: url(tbl_bck1.png)" class="hierarchy"><img src="tbl_spacer.png" alt="." style="background-color: inherit" class="hierarchy"/><img src="icon_q_root.gif" alt="." style="background-color: white; background-color: inherit" title="QuestionnaireResponseRoot" class="hierarchy"/> ltc-questionnaire-response-iadl-referral-example</td><td style="vertical-align: top; text-align : var(--ig-left,left); background-color: white; border: 1px #F0F0F0 solid; padding:0px 4px 0px 4px" class="hierarchy"></td><td style="vertical-align: top; text-align : var(--ig-left,left); background-color: white; border: 1px #F0F0F0 solid; padding:0px 4px 0px 4px" class="hierarchy"></td><td style="vertical-align: top; text-align : var(--ig-left,left); background-color: white; border: 1px #F0F0F0 solid; padding:0px 4px 0px 4px" class="hierarchy">Questionnaire:<a href="Questionnaire-ltc-questionnaire-iadl.html">LTCQuestionnaireIADL</a></td></tr>
<tr style="border: 1px #F0F0F0 solid; padding:0px; vertical-align: top; background-color: #F7F7F7"><td style="vertical-align: top; text-align : var(--ig-left,left); background-color: #F7F7F7; border: 1px #F0F0F0 solid; padding:0px 4px 0px 4px; white-space: nowrap; background-image: url(tbl_bck10.png)" class="hierarchy"><img src="tbl_spacer.png" alt="." style="background-color: inherit" class="hierarchy"/><img src="tbl_vjoin.png" alt="." style="background-color: inherit" class="hierarchy"/><img src="icon-q-string.png" alt="." style="background-color: #F7F7F7; background-color: inherit" title="Item" class="hierarchy"/> F1</td><td style="vertical-align: top; text-align : var(--ig-left,left); background-color: #F7F7F7; border: 1px #F0F0F0 solid; padding:0px 4px 0px 4px" class="hierarchy">使用電話</td><td style="vertical-align: top; text-align : var(--ig-left,left); background-color: #F7F7F7; border: 1px #F0F0F0 solid; padding:0px 4px 0px 4px" class="hierarchy"/><td style="vertical-align: top; text-align : var(--ig-left,left); background-color: #F7F7F7; border: 1px #F0F0F0 solid; padding:0px 4px 0px 4px" class="hierarchy">2</td></tr>
<tr style="border: 1px #F0F0F0 solid; padding:0px; vertical-align: top; background-color: white"><td style="vertical-align: top; text-align : var(--ig-left,left); background-color: white; border: 1px #F0F0F0 solid; padding:0px 4px 0px 4px; white-space: nowrap; background-image: url(tbl_bck10.png)" class="hierarchy"><img src="tbl_spacer.png" alt="." style="background-color: inherit" class="hierarchy"/><img src="tbl_vjoin.png" alt="." style="background-color: inherit" class="hierarchy"/><img src="icon-q-string.png" alt="." style="background-color: white; background-color: inherit" title="Item" class="hierarchy"/> F2</td><td style="vertical-align: top; text-align : var(--ig-left,left); background-color: white; border: 1px #F0F0F0 solid; padding:0px 4px 0px 4px" class="hierarchy">購物</td><td style="vertical-align: top; text-align : var(--ig-left,left); background-color: white; border: 1px #F0F0F0 solid; padding:0px 4px 0px 4px" class="hierarchy"/><td style="vertical-align: top; text-align : var(--ig-left,left); background-color: white; border: 1px #F0F0F0 solid; padding:0px 4px 0px 4px" class="hierarchy">2</td></tr>
<tr style="border: 1px #F0F0F0 solid; padding:0px; vertical-align: top; background-color: #F7F7F7"><td style="vertical-align: top; text-align : var(--ig-left,left); background-color: #F7F7F7; border: 1px #F0F0F0 solid; padding:0px 4px 0px 4px; white-space: nowrap; background-image: url(tbl_bck10.png)" class="hierarchy"><img src="tbl_spacer.png" alt="." style="background-color: inherit" class="hierarchy"/><img src="tbl_vjoin.png" alt="." style="background-color: inherit" class="hierarchy"/><img src="icon-q-string.png" alt="." style="background-color: #F7F7F7; background-color: inherit" title="Item" class="hierarchy"/> F3</td><td style="vertical-align: top; text-align : var(--ig-left,left); background-color: #F7F7F7; border: 1px #F0F0F0 solid; padding:0px 4px 0px 4px" class="hierarchy">備餐</td><td style="vertical-align: top; text-align : var(--ig-left,left); background-color: #F7F7F7; border: 1px #F0F0F0 solid; padding:0px 4px 0px 4px" class="hierarchy"/><td style="vertical-align: top; text-align : var(--ig-left,left); background-color: #F7F7F7; border: 1px #F0F0F0 solid; padding:0px 4px 0px 4px" class="hierarchy">2</td></tr>
<tr style="border: 1px #F0F0F0 solid; padding:0px; vertical-align: top; background-color: white"><td style="vertical-align: top; text-align : var(--ig-left,left); background-color: white; border: 1px #F0F0F0 solid; padding:0px 4px 0px 4px; white-space: nowrap; background-image: url(tbl_bck10.png)" class="hierarchy"><img src="tbl_spacer.png" alt="." style="background-color: inherit" class="hierarchy"/><img src="tbl_vjoin.png" alt="." style="background-color: inherit" class="hierarchy"/><img src="icon-q-string.png" alt="." style="background-color: white; background-color: inherit" title="Item" class="hierarchy"/> F4</td><td style="vertical-align: top; text-align : var(--ig-left,left); background-color: white; border: 1px #F0F0F0 solid; padding:0px 4px 0px 4px" class="hierarchy">處理家務</td><td style="vertical-align: top; text-align : var(--ig-left,left); background-color: white; border: 1px #F0F0F0 solid; padding:0px 4px 0px 4px" class="hierarchy"/><td style="vertical-align: top; text-align : var(--ig-left,left); background-color: white; border: 1px #F0F0F0 solid; padding:0px 4px 0px 4px" class="hierarchy">2</td></tr>
<tr style="border: 1px #F0F0F0 solid; padding:0px; vertical-align: top; background-color: #F7F7F7"><td style="vertical-align: top; text-align : var(--ig-left,left); background-color: #F7F7F7; border: 1px #F0F0F0 solid; padding:0px 4px 0px 4px; white-space: nowrap; background-image: url(tbl_bck10.png)" class="hierarchy"><img src="tbl_spacer.png" alt="." style="background-color: inherit" class="hierarchy"/><img src="tbl_vjoin.png" alt="." style="background-color: inherit" class="hierarchy"/><img src="icon-q-string.png" alt="." style="background-color: #F7F7F7; background-color: inherit" title="Item" class="hierarchy"/> F5</td><td style="vertical-align: top; text-align : var(--ig-left,left); background-color: #F7F7F7; border: 1px #F0F0F0 solid; padding:0px 4px 0px 4px" class="hierarchy">洗衣服</td><td style="vertical-align: top; text-align : var(--ig-left,left); background-color: #F7F7F7; border: 1px #F0F0F0 solid; padding:0px 4px 0px 4px" class="hierarchy"/><td style="vertical-align: top; text-align : var(--ig-left,left); background-color: #F7F7F7; border: 1px #F0F0F0 solid; padding:0px 4px 0px 4px" class="hierarchy">2</td></tr>
<tr style="border: 1px #F0F0F0 solid; padding:0px; vertical-align: top; background-color: white"><td style="vertical-align: top; text-align : var(--ig-left,left); background-color: white; border: 1px #F0F0F0 solid; padding:0px 4px 0px 4px; white-space: nowrap; background-image: url(tbl_bck10.png)" class="hierarchy"><img src="tbl_spacer.png" alt="." style="background-color: inherit" class="hierarchy"/><img src="tbl_vjoin.png" alt="." style="background-color: inherit" class="hierarchy"/><img src="icon-q-string.png" alt="." style="background-color: white; background-color: inherit" title="Item" class="hierarchy"/> F6</td><td style="vertical-align: top; text-align : var(--ig-left,left); background-color: white; border: 1px #F0F0F0 solid; padding:0px 4px 0px 4px" class="hierarchy">外出</td><td style="vertical-align: top; text-align : var(--ig-left,left); background-color: white; border: 1px #F0F0F0 solid; padding:0px 4px 0px 4px" class="hierarchy"/><td style="vertical-align: top; text-align : var(--ig-left,left); background-color: white; border: 1px #F0F0F0 solid; padding:0px 4px 0px 4px" class="hierarchy">2</td></tr>
<tr style="border: 1px #F0F0F0 solid; padding:0px; vertical-align: top; background-color: #F7F7F7"><td style="vertical-align: top; text-align : var(--ig-left,left); background-color: #F7F7F7; border: 1px #F0F0F0 solid; padding:0px 4px 0px 4px; white-space: nowrap; background-image: url(tbl_bck10.png)" class="hierarchy"><img src="tbl_spacer.png" alt="." style="background-color: inherit" class="hierarchy"/><img src="tbl_vjoin.png" alt="." style="background-color: inherit" class="hierarchy"/><img src="icon-q-string.png" alt="." style="background-color: #F7F7F7; background-color: inherit" title="Item" class="hierarchy"/> F7</td><td style="vertical-align: top; text-align : var(--ig-left,left); background-color: #F7F7F7; border: 1px #F0F0F0 solid; padding:0px 4px 0px 4px" class="hierarchy">服用藥物</td><td style="vertical-align: top; text-align : var(--ig-left,left); background-color: #F7F7F7; border: 1px #F0F0F0 solid; padding:0px 4px 0px 4px" class="hierarchy"/><td style="vertical-align: top; text-align : var(--ig-left,left); background-color: #F7F7F7; border: 1px #F0F0F0 solid; padding:0px 4px 0px 4px" class="hierarchy">2</td></tr>
<tr style="border: 1px #F0F0F0 solid; padding:0px; vertical-align: top; background-color: white"><td style="vertical-align: top; text-align : var(--ig-left,left); background-color: white; border: 1px #F0F0F0 solid; padding:0px 4px 0px 4px; white-space: nowrap; background-image: url(tbl_bck00.png)" class="hierarchy"><img src="tbl_spacer.png" alt="." style="background-color: inherit" class="hierarchy"/><img src="tbl_vjoin_end.png" alt="." style="background-color: inherit" class="hierarchy"/><img src="icon-q-string.png" alt="." style="background-color: white; background-color: inherit" title="Item" class="hierarchy"/> F8</td><td style="vertical-align: top; text-align : var(--ig-left,left); background-color: white; border: 1px #F0F0F0 solid; padding:0px 4px 0px 4px" class="hierarchy">處理財務的能力</td><td style="vertical-align: top; text-align : var(--ig-left,left); background-color: white; border: 1px #F0F0F0 solid; padding:0px 4px 0px 4px" class="hierarchy"/><td style="vertical-align: top; text-align : var(--ig-left,left); background-color: white; border: 1px #F0F0F0 solid; padding:0px 4px 0px 4px" class="hierarchy">2</td></tr>
<tr><td colspan="4" class="hierarchy"><br/><a href="https://hl7.org/fhir/R4/formats.html#table" title="Legend for this format"><img src="data:image/png;base64," alt="doco" style="background-color: inherit"/> Documentation for this format</a></td></tr></table></div>
        </text>
        <questionnaire value="http://ltc-ig.fhir.tw/Questionnaire/ltc-questionnaire-iadl"/>
        <status value="completed"/>
        <subject>
          <reference value="Patient/ltc-patient-referral-example"/>
        </subject>
        <authored value="2024-09-15T14:00:00+08:00"/>
        <item>
          <linkId value="F1"/>
          <text value="使用電話"/>
          <answer>
            <valueInteger value="2"/>
          </answer>
        </item>
        <item>
          <linkId value="F2"/>
          <text value="購物"/>
          <answer>
            <valueInteger value="2"/>
          </answer>
        </item>
        <item>
          <linkId value="F3"/>
          <text value="備餐"/>
          <answer>
            <valueInteger value="2"/>
          </answer>
        </item>
        <item>
          <linkId value="F4"/>
          <text value="處理家務"/>
          <answer>
            <valueInteger value="2"/>
          </answer>
        </item>
        <item>
          <linkId value="F5"/>
          <text value="洗衣服"/>
          <answer>
            <valueInteger value="2"/>
          </answer>
        </item>
        <item>
          <linkId value="F6"/>
          <text value="外出"/>
          <answer>
            <valueInteger value="2"/>
          </answer>
        </item>
        <item>
          <linkId value="F7"/>
          <text value="服用藥物"/>
          <answer>
            <valueInteger value="2"/>
          </answer>
        </item>
        <item>
          <linkId value="F8"/>
          <text value="處理財務的能力"/>
          <answer>
            <valueInteger value="2"/>
          </answer>
        </item>
      </QuestionnaireResponse>
    </resource>
  </entry>
  <entry>
    <fullUrl value="http://ltc-ig.fhir.tw/QuestionnaireResponse/ltc-questionnaire-response-sof-example"/>
    <resource>
      <QuestionnaireResponse>
        <id value="ltc-questionnaire-response-sof-example"/>
        <meta>
          <profile value="http://ltc-ig.fhir.tw/StructureDefinition/LTCQuestionnaireResponseReferralSOF"/>
        </meta>
        <text>
          <status value="generated"/><div xmlns="http://www.w3.org/1999/xhtml"><a name="QuestionnaireResponse_ltc-questionnaire-response-sof-example"> </a><p class="res-header-id"><b>Generated Narrative: QuestionnaireResponse ltc-questionnaire-response-sof-example</b></p><a name="ltc-questionnaire-response-sof-example"> </a><a name="hcltc-questionnaire-response-sof-example"> </a><div style="display: inline-block; background-color: #d9e0e7; padding: 6px; margin: 4px; border: 1px solid #8da1b4; border-radius: 5px; line-height: 60%"><p style="margin-bottom: 0px"/><p style="margin-bottom: 0px">Profile: <a href="StructureDefinition-LTCQuestionnaireResponseReferralSOF.html">轉介單－衰弱評估問卷回覆</a></p></div><table border="1" cellpadding="0" cellspacing="0" style="border: 1px #F0F0F0 solid; font-size: 11px; font-family: verdana; vertical-align: top;"><tr style="border: 2px #F0F0F0 solid; font-size: 11px; font-family: verdana; vertical-align: top"><th style="vertical-align: top; text-align : var(--ig-left,left); background-color: white; border: 1px #F0F0F0 solid; padding:0px 4px 0px 4px; padding-top: 3px; padding-bottom: 3px" class="hierarchy"><a href="https://hl7.org/fhir/R4/formats.html#table" title="The linkID for the item">LinkID</a></th><th style="vertical-align: top; text-align : var(--ig-left,left); background-color: white; border: 1px #F0F0F0 solid; padding:0px 4px 0px 4px; padding-top: 3px; padding-bottom: 3px" class="hierarchy"><a href="https://hl7.org/fhir/R4/formats.html#table" title="Text for the item">Text</a></th><th style="vertical-align: top; text-align : var(--ig-left,left); background-color: white; border: 1px #F0F0F0 solid; padding:0px 4px 0px 4px; padding-top: 3px; padding-bottom: 3px" class="hierarchy"><a href="https://hl7.org/fhir/R4/formats.html#table" title="Minimum and Maximum # of times the item can appear in the instance">Definition</a></th><th style="vertical-align: top; text-align : var(--ig-left,left); background-color: white; border: 1px #F0F0F0 solid; padding:0px 4px 0px 4px; padding-top: 3px; padding-bottom: 3px" class="hierarchy"><a href="https://hl7.org/fhir/R4/formats.html#table" title="The type of the item">Answer</a><span style="float: right"><a href="https://hl7.org/fhir/R4/formats.html#table" title="Legend for this format"><img src="data:image/png;base64," alt="doco" style="background-color: inherit"/></a></span></th></tr><tr style="border: 1px #F0F0F0 solid; padding:0px; vertical-align: top; background-color: white"><td style="vertical-align: top; text-align : var(--ig-left,left); background-color: white; border: 1px #F0F0F0 solid; padding:0px 4px 0px 4px; white-space: nowrap; background-image: url(tbl_bck1.png)" class="hierarchy"><img src="tbl_spacer.png" alt="." style="background-color: inherit" class="hierarchy"/><img src="icon_q_root.gif" alt="." style="background-color: white; background-color: inherit" title="QuestionnaireResponseRoot" class="hierarchy"/> ltc-questionnaire-response-sof-example</td><td style="vertical-align: top; text-align : var(--ig-left,left); background-color: white; border: 1px #F0F0F0 solid; padding:0px 4px 0px 4px" class="hierarchy"></td><td style="vertical-align: top; text-align : var(--ig-left,left); background-color: white; border: 1px #F0F0F0 solid; padding:0px 4px 0px 4px" class="hierarchy"></td><td style="vertical-align: top; text-align : var(--ig-left,left); background-color: white; border: 1px #F0F0F0 solid; padding:0px 4px 0px 4px" class="hierarchy">Questionnaire:<a href="Questionnaire-ltc-questionnaire-sof.html">LTCQuestionnaireSOF</a></td></tr>
<tr style="border: 1px #F0F0F0 solid; padding:0px; vertical-align: top; background-color: #F7F7F7"><td style="vertical-align: top; text-align : var(--ig-left,left); background-color: #F7F7F7; border: 1px #F0F0F0 solid; padding:0px 4px 0px 4px; white-space: nowrap; background-image: url(tbl_bck10.png)" class="hierarchy"><img src="tbl_spacer.png" alt="." style="background-color: inherit" class="hierarchy"/><img src="tbl_vjoin.png" alt="." style="background-color: inherit" class="hierarchy"/><img src="icon-q-string.png" alt="." style="background-color: #F7F7F7; background-color: inherit" title="Item" class="hierarchy"/> sof-1</td><td style="vertical-align: top; text-align : var(--ig-left,left); background-color: #F7F7F7; border: 1px #F0F0F0 solid; padding:0px 4px 0px 4px" class="hierarchy">體重減輕</td><td style="vertical-align: top; text-align : var(--ig-left,left); background-color: #F7F7F7; border: 1px #F0F0F0 solid; padding:0px 4px 0px 4px" class="hierarchy"/><td style="vertical-align: top; text-align : var(--ig-left,left); background-color: #F7F7F7; border: 1px #F0F0F0 solid; padding:0px 4px 0px 4px" class="hierarchy">true</td></tr>
<tr style="border: 1px #F0F0F0 solid; padding:0px; vertical-align: top; background-color: white"><td style="vertical-align: top; text-align : var(--ig-left,left); background-color: white; border: 1px #F0F0F0 solid; padding:0px 4px 0px 4px; white-space: nowrap; background-image: url(tbl_bck10.png)" class="hierarchy"><img src="tbl_spacer.png" alt="." style="background-color: inherit" class="hierarchy"/><img src="tbl_vjoin.png" alt="." style="background-color: inherit" class="hierarchy"/><img src="icon-q-string.png" alt="." style="background-color: white; background-color: inherit" title="Item" class="hierarchy"/> sof-2</td><td style="vertical-align: top; text-align : var(--ig-left,left); background-color: white; border: 1px #F0F0F0 solid; padding:0px 4px 0px 4px" class="hierarchy">下肢功能</td><td style="vertical-align: top; text-align : var(--ig-left,left); background-color: white; border: 1px #F0F0F0 solid; padding:0px 4px 0px 4px" class="hierarchy"/><td style="vertical-align: top; text-align : var(--ig-left,left); background-color: white; border: 1px #F0F0F0 solid; padding:0px 4px 0px 4px" class="hierarchy">false</td></tr>
<tr style="border: 1px #F0F0F0 solid; padding:0px; vertical-align: top; background-color: #F7F7F7"><td style="vertical-align: top; text-align : var(--ig-left,left); background-color: #F7F7F7; border: 1px #F0F0F0 solid; padding:0px 4px 0px 4px; white-space: nowrap; background-image: url(tbl_bck00.png)" class="hierarchy"><img src="tbl_spacer.png" alt="." style="background-color: inherit" class="hierarchy"/><img src="tbl_vjoin_end.png" alt="." style="background-color: inherit" class="hierarchy"/><img src="icon-q-string.png" alt="." style="background-color: #F7F7F7; background-color: inherit" title="Item" class="hierarchy"/> sof-3</td><td style="vertical-align: top; text-align : var(--ig-left,left); background-color: #F7F7F7; border: 1px #F0F0F0 solid; padding:0px 4px 0px 4px" class="hierarchy">精力降低</td><td style="vertical-align: top; text-align : var(--ig-left,left); background-color: #F7F7F7; border: 1px #F0F0F0 solid; padding:0px 4px 0px 4px" class="hierarchy"/><td style="vertical-align: top; text-align : var(--ig-left,left); background-color: #F7F7F7; border: 1px #F0F0F0 solid; padding:0px 4px 0px 4px" class="hierarchy">true</td></tr>
<tr><td colspan="4" class="hierarchy"><br/><a href="https://hl7.org/fhir/R4/formats.html#table" title="Legend for this format"><img src="data:image/png;base64," alt="doco" style="background-color: inherit"/> Documentation for this format</a></td></tr></table></div>
        </text>
        <questionnaire value="http://ltc-ig.fhir.tw/Questionnaire/ltc-questionnaire-sof"/>
        <status value="completed"/>
        <subject>
          <reference value="Patient/ltc-patient-referral-example"/>
        </subject>
        <authored value="2024-09-15T14:10:00+08:00"/>
        <item>
          <linkId value="sof-1"/>
          <text value="體重減輕"/>
          <answer>
            <valueBoolean value="true"/>
          </answer>
        </item>
        <item>
          <linkId value="sof-2"/>
          <text value="下肢功能"/>
          <answer>
            <valueBoolean value="false"/>
          </answer>
        </item>
        <item>
          <linkId value="sof-3"/>
          <text value="精力降低"/>
          <answer>
            <valueBoolean value="true"/>
          </answer>
        </item>
      </QuestionnaireResponse>
    </resource>
  </entry>
  <entry>
    <fullUrl value="http://ltc-ig.fhir.tw/QuestionnaireResponse/ltc-questionnaire-response-caregiver-referral-example"/>
    <resource>
      <QuestionnaireResponse>
        <id value="ltc-questionnaire-response-caregiver-referral-example"/>
        <meta>
          <profile value="http://ltc-ig.fhir.tw/StructureDefinition/LTCQuestionnaireResponseReferralCaregiver"/>
        </meta>
        <text>
          <status value="generated"/><div xmlns="http://www.w3.org/1999/xhtml"><a name="QuestionnaireResponse_ltc-questionnaire-response-caregiver-referral-example"> </a><p class="res-header-id"><b>Generated Narrative: QuestionnaireResponse ltc-questionnaire-response-caregiver-referral-example</b></p><a name="ltc-questionnaire-response-caregiver-referral-example"> </a><a name="hcltc-questionnaire-response-caregiver-referral-example"> </a><div style="display: inline-block; background-color: #d9e0e7; padding: 6px; margin: 4px; border: 1px solid #8da1b4; border-radius: 5px; line-height: 60%"><p style="margin-bottom: 0px"/><p style="margin-bottom: 0px">Profile: <a href="StructureDefinition-LTCQuestionnaireResponseReferralCaregiver.html">轉介單－照顧者問卷回覆</a></p></div><table border="1" cellpadding="0" cellspacing="0" style="border: 1px #F0F0F0 solid; font-size: 11px; font-family: verdana; vertical-align: top;"><tr style="border: 2px #F0F0F0 solid; font-size: 11px; font-family: verdana; vertical-align: top"><th style="vertical-align: top; text-align : var(--ig-left,left); background-color: white; border: 1px #F0F0F0 solid; padding:0px 4px 0px 4px; padding-top: 3px; padding-bottom: 3px" class="hierarchy"><a href="https://hl7.org/fhir/R4/formats.html#table" title="The linkID for the item">LinkID</a></th><th style="vertical-align: top; text-align : var(--ig-left,left); background-color: white; border: 1px #F0F0F0 solid; padding:0px 4px 0px 4px; padding-top: 3px; padding-bottom: 3px" class="hierarchy"><a href="https://hl7.org/fhir/R4/formats.html#table" title="Text for the item">Text</a></th><th style="vertical-align: top; text-align : var(--ig-left,left); background-color: white; border: 1px #F0F0F0 solid; padding:0px 4px 0px 4px; padding-top: 3px; padding-bottom: 3px" class="hierarchy"><a href="https://hl7.org/fhir/R4/formats.html#table" title="Minimum and Maximum # of times the item can appear in the instance">Definition</a></th><th style="vertical-align: top; text-align : var(--ig-left,left); background-color: white; border: 1px #F0F0F0 solid; padding:0px 4px 0px 4px; padding-top: 3px; padding-bottom: 3px" class="hierarchy"><a href="https://hl7.org/fhir/R4/formats.html#table" title="The type of the item">Answer</a><span style="float: right"><a href="https://hl7.org/fhir/R4/formats.html#table" title="Legend for this format"><img src="data:image/png;base64," alt="doco" style="background-color: inherit"/></a></span></th></tr><tr style="border: 1px #F0F0F0 solid; padding:0px; vertical-align: top; background-color: white"><td style="vertical-align: top; text-align : var(--ig-left,left); background-color: white; border: 1px #F0F0F0 solid; padding:0px 4px 0px 4px; white-space: nowrap; background-image: url(tbl_bck1.png)" class="hierarchy"><img src="tbl_spacer.png" alt="." style="background-color: inherit" class="hierarchy"/><img src="icon_q_root.gif" alt="." style="background-color: white; background-color: inherit" title="QuestionnaireResponseRoot" class="hierarchy"/> ltc-questionnaire-response-caregiver-referral-example</td><td style="vertical-align: top; text-align : var(--ig-left,left); background-color: white; border: 1px #F0F0F0 solid; padding:0px 4px 0px 4px" class="hierarchy"></td><td style="vertical-align: top; text-align : var(--ig-left,left); background-color: white; border: 1px #F0F0F0 solid; padding:0px 4px 0px 4px" class="hierarchy"></td><td style="vertical-align: top; text-align : var(--ig-left,left); background-color: white; border: 1px #F0F0F0 solid; padding:0px 4px 0px 4px" class="hierarchy">Questionnaire:<a href="Questionnaire-ltc-questionnaire-caregiver.html">LTCQuestionnaireCaregiver</a></td></tr>
<tr style="border: 1px #F0F0F0 solid; padding:0px; vertical-align: top; background-color: #F7F7F7"><td style="vertical-align: top; text-align : var(--ig-left,left); background-color: #F7F7F7; border: 1px #F0F0F0 solid; padding:0px 4px 0px 4px; white-space: nowrap; background-image: url(tbl_bck00.png)" class="hierarchy"><img src="tbl_spacer.png" alt="." style="background-color: inherit" class="hierarchy"/><img src="tbl_vjoin_end.png" alt="." style="background-color: inherit" class="hierarchy"/><img src="icon-q-string.png" alt="." style="background-color: #F7F7F7; background-color: inherit" title="Item" class="hierarchy"/> caregiver-1</td><td style="vertical-align: top; text-align : var(--ig-left,left); background-color: #F7F7F7; border: 1px #F0F0F0 solid; padding:0px 4px 0px 4px" class="hierarchy">是否有照顧者</td><td style="vertical-align: top; text-align : var(--ig-left,left); background-color: #F7F7F7; border: 1px #F0F0F0 solid; padding:0px 4px 0px 4px" class="hierarchy"/><td style="vertical-align: top; text-align : var(--ig-left,left); background-color: #F7F7F7; border: 1px #F0F0F0 solid; padding:0px 4px 0px 4px" class="hierarchy">是，固定</td></tr>
<tr><td colspan="4" class="hierarchy"><br/><a href="https://hl7.org/fhir/R4/formats.html#table" title="Legend for this format"><img src="data:image/png;base64," alt="doco" style="background-color: inherit"/> Documentation for this format</a></td></tr></table></div>
        </text>
        <questionnaire value="http://ltc-ig.fhir.tw/Questionnaire/ltc-questionnaire-caregiver"/>
        <status value="completed"/>
        <subject>
          <reference value="Patient/ltc-patient-referral-example"/>
        </subject>
        <authored value="2024-09-15T14:20:00+08:00"/>
        <item>
          <linkId value="caregiver-1"/>
          <text value="是否有照顧者"/>
          <answer>
            <valueString value="是，固定"/>
          </answer>
        </item>
      </QuestionnaireResponse>
    </resource>
  </entry>
  <entry>
    <fullUrl value="http://ltc-ig.fhir.tw/Encounter/ltc-encounter-example"/>
    <resource>
      <Encounter>
        <id value="ltc-encounter-example"/>
        <text>
          <status value="generated"/><div xmlns="http://www.w3.org/1999/xhtml"><a name="Encounter_ltc-encounter-example"> </a><p class="res-header-id"><b>Generated Narrative: Encounter ltc-encounter-example</b></p><a name="ltc-encounter-example"> </a><a name="hcltc-encounter-example"> </a><p><b>status</b>: Finished</p><p><b>class</b>: <a href="http://terminology.hl7.org/6.5.0/CodeSystem-v3-ActCode.html#v3-ActCode-AMB">ActCode AMB</a>: ambulatory</p><p><b>subject</b>: <a href="Patient-ltc-patient-chen-ming-hui.html">陳明慧 Female, DoB: 1945-03-15 ( National Person Identifier (TWN): A123456789 (use: official, ))</a></p><p><b>period</b>: 2024-01-10 09:00:00+0800 --&gt; 2024-01-10 11:30:00+0800</p><p><b>reasonCode</b>: <span title="Codes:{http://snomed.info/sct 44054006}">糖尿病追蹤檢查</span></p><p><b>serviceProvider</b>: <a href="Organization-ltc-organization-example.html">Organization 新北市私立安康老人長期照顧中心（養護型）</a></p></div>
        </text>
        <status value="finished"/>
        <class>
          <system value="http://terminology.hl7.org/CodeSystem/v3-ActCode"/>
          <code value="AMB"/>
          <display value="ambulatory"/>
        </class>
        <subject>
          <reference value="Patient/ltc-patient-chen-ming-hui"/>
        </subject>
        <period>
          <start value="2024-01-10T09:00:00+08:00"/>
          <end value="2024-01-10T11:30:00+08:00"/>
        </period>
        <reasonCode>
          <coding>
            <system value="http://snomed.info/sct"/>
            <code value="44054006"/>
            <display value="Diabetes mellitus type 2"/>
          </coding>
          <text value="糖尿病追蹤檢查"/>
        </reasonCode>
        <serviceProvider>
          <reference value="Organization/ltc-organization-example"/>
        </serviceProvider>
      </Encounter>
    </resource>
  </entry>
  <entry>
    <fullUrl value="http://ltc-ig.fhir.tw/Practitioner/ltc-practitioner-nurse-example"/>
    <resource>
      <Practitioner>
        <id value="ltc-practitioner-nurse-example"/>
        <meta>
          <profile value="http://ltc-ig.fhir.tw/StructureDefinition/LTCPractitioner"/>
        </meta>
        <text>
          <status value="generated"/><div xmlns="http://www.w3.org/1999/xhtml"><a name="Practitioner_ltc-practitioner-nurse-example"> </a><p class="res-header-id"><b>Generated Narrative: Practitioner ltc-practitioner-nurse-example</b></p><a name="ltc-practitioner-nurse-example"> </a><a name="hcltc-practitioner-nurse-example"> </a><div style="display: inline-block; background-color: #d9e0e7; padding: 6px; margin: 4px; border: 1px solid #8da1b4; border-radius: 5px; line-height: 60%"><p style="margin-bottom: 0px"/><p style="margin-bottom: 0px">Profile: <a href="StructureDefinition-LTCPractitioner.html">長期照顧－照顧服務提供者</a></p></div><p><b>identifier</b>: Provider Number/N123456789 (use: official, )</p><p><b>active</b>: true</p><p><b>name</b>: 王美玲(Official)</p><p><b>telecom</b>: ph: 02-29412345(Work), <a href="mailto:meiling.wang@ltc-center.tw">meiling.wang@ltc-center.tw</a></p><p><b>gender</b>: Female</p><h3>Qualifications</h3><table class="grid"><tr><td style="display: none">-</td><td><b>Identifier</b></td><td><b>Code</b></td></tr><tr><td style="display: none">*</td><td><code>http://example.org/fhir/NamingSystem/nursing-license</code>/護理執照123456</td><td><span title="Codes:{http://snomed.info/sct 224535009}">Registered nurse</span></td></tr></table></div>
        </text>
        <identifier>
          <use value="official"/>
          <type>
            <coding>
              <system value="http://terminology.hl7.org/CodeSystem/v2-0203"/>
              <code value="PRN"/>
              <display value="Provider Number"/>
            </coding>
          </type>
          <system value="http://example.org/fhir/NamingSystem/practitioner-id"/>
          <value value="N123456789"/>
        </identifier>
        <active value="true"/>
        <name>
          <use value="official"/>
          <text value="王美玲"/>
          <family value="王"/>
          <given value="美玲"/>
        </name>
        <telecom>
          <system value="phone"/>
          <value value="02-29412345"/>
          <use value="work"/>
        </telecom>
        <telecom>
          <system value="email"/>
          <value value="meiling.wang@ltc-center.tw"/>
          <use value="work"/>
        </telecom>
        <gender value="female"/>
        <qualification>
          <identifier>
            <system value="http://example.org/fhir/NamingSystem/nursing-license"/>
            <value value="護理執照123456"/>
          </identifier>
          <code>
            <coding>
              <system value="http://snomed.info/sct"/>
              <code value="224535009"/>
              <display value="Registered nurse"/>
            </coding>
          </code>
        </qualification>
      </Practitioner>
    </resource>
  </entry>
  <entry>
    <fullUrl value="http://ltc-ig.fhir.tw/Organization/ltc-organization-example"/>
    <resource>
      <Organization>
        <id value="ltc-organization-example"/>
        <meta>
          <profile value="http://ltc-ig.fhir.tw/StructureDefinition/Organization-twltc"/>
        </meta>
        <text>
          <status value="generated"/><div xmlns="http://www.w3.org/1999/xhtml"><a name="Organization_ltc-organization-example"> </a><p class="res-header-id"><b>Generated Narrative: Organization ltc-organization-example</b></p><a name="ltc-organization-example"> </a><a name="hcltc-organization-example"> </a><div style="display: inline-block; background-color: #d9e0e7; padding: 6px; margin: 4px; border: 1px solid #8da1b4; border-radius: 5px; line-height: 60%"><p style="margin-bottom: 0px"/><p style="margin-bottom: 0px">Profile: <a href="StructureDefinition-Organization-twltc.html">長期照顧－機構</a></p></div><p><b>identifier</b>: Provider Number/0131060029 (use: usual, )</p><p><b>active</b>: true</p><p><b>type</b>: <span title="Codes:{http://terminology.hl7.org/CodeSystem/organization-type prov}">Healthcare Provider</span></p><p><b>name</b>: 新北市私立安康老人長期照顧中心（養護型）</p><p><b>telecom</b>: ph: 02-29412345(Work), fax: 02-29412346(Work)</p><p><b>address</b>: 新北市中和區安康路二段123號(work)</p><h3>Contacts</h3><table class="grid"><tr><td style="display: none">-</td><td><b>Purpose</b></td><td><b>Name</b></td><td><b>Telecom</b></td></tr><tr><td style="display: none">*</td><td><span title="Codes:{http://terminology.hl7.org/CodeSystem/contactentity-type ADMIN}">Administrative</span></td><td>志明 王 (Official)</td><td>ph: 02-29412345(Work)</td></tr></table></div>
        </text>
        <identifier>
          <use value="usual"/>
          <type>
            <coding>
              <system value="http://terminology.hl7.org/CodeSystem/v2-0203"/>
              <code value="PRN"/>
              <display value="Provider Number"/>
            </coding>
          </type>
          <system value="http://www.moi.gov.tw"/>
          <value value="0131060029"/>
        </identifier>
        <active value="true"/>
        <type>
          <coding>
            <system value="http://terminology.hl7.org/CodeSystem/organization-type"/>
            <code value="prov"/>
            <display value="Healthcare Provider"/>
          </coding>
        </type>
        <name value="新北市私立安康老人長期照顧中心（養護型）"/>
        <telecom>
          <system value="phone"/>
          <value value="02-29412345"/>
          <use value="work"/>
        </telecom>
        <telecom>
          <system value="fax"/>
          <value value="02-29412346"/>
          <use value="work"/>
        </telecom>
        <address>
          <use value="work"/>
          <type value="physical"/>
          <text value="新北市中和區安康路二段123號"/>
          <line value="安康路二段123號"/>
          <city value="中和區"/>
          <state value="新北市"/>
          <postalCode value="23511"/>
          <country value="TW"/>
        </address>
        <contact>
          <purpose>
            <coding>
              <system value="http://terminology.hl7.org/CodeSystem/contactentity-type"/>
              <code value="ADMIN"/>
              <display value="Administrative"/>
            </coding>
          </purpose>
          <name>
            <use value="official"/>
            <family value="王"/>
            <given value="志明"/>
          </name>
          <telecom>
            <system value="phone"/>
            <value value="02-29412345"/>
            <use value="work"/>
          </telecom>
        </contact>
      </Organization>
    </resource>
  </entry>
  <entry>
    <fullUrl value="http://ltc-ig.fhir.tw/PractitionerRole/ltc-practitioner-role-nurse-example"/>
    <resource>
      <PractitionerRole>
        <id value="ltc-practitioner-role-nurse-example"/>
        <meta>
          <profile value="http://ltc-ig.fhir.tw/StructureDefinition/LTCPractitionerRole"/>
        </meta>
        <text>
          <status value="generated"/><div xmlns="http://www.w3.org/1999/xhtml"><a name="PractitionerRole_ltc-practitioner-role-nurse-example"> </a><p class="res-header-id"><b>Generated Narrative: PractitionerRole ltc-practitioner-role-nurse-example</b></p><a name="ltc-practitioner-role-nurse-example"> </a><a name="hcltc-practitioner-role-nurse-example"> </a><div style="display: inline-block; background-color: #d9e0e7; padding: 6px; margin: 4px; border: 1px solid #8da1b4; border-radius: 5px; line-height: 60%"><p style="margin-bottom: 0px"/><p style="margin-bottom: 0px">Profile: <a href="StructureDefinition-LTCPractitionerRole.html">長期照顧－服務人員角色</a></p></div><p><b>active</b>: true</p><p><b>practitioner</b>: <a href="Practitioner-ltc-practitioner-nurse-example.html">Practitioner 王美玲(official)</a></p><p><b>organization</b>: <a href="Organization-ltc-organization-example.html">Organization 新北市私立安康老人長期照顧中心（養護型）</a></p><p><b>code</b>: <span title="Codes:{http://snomed.info/sct 224535009}">Registered nurse</span></p><p><b>specialty</b>: <span title="Codes:{http://snomed.info/sct 394609007}">General surgery (qualifier value)</span></p><p><b>telecom</b>: ph: 02-29412345(Work), <a href="mailto:meiling.wang@ltc-center.tw">meiling.wang@ltc-center.tw</a></p><blockquote><p><b>availableTime</b></p><p><b>daysOfWeek</b>: Monday, Tuesday, Wednesday, Thursday, Friday</p><p><b>availableStartTime</b>: 08:00:00</p><p><b>availableEndTime</b>: 17:00:00</p></blockquote></div>
        </text>
        <active value="true"/>
        <practitioner>
          <reference value="Practitioner/ltc-practitioner-nurse-example"/>
        </practitioner>
        <organization>
          <reference value="Organization/ltc-organization-example"/>
        </organization>
        <code>
          <coding>
            <system value="http://snomed.info/sct"/>
            <code value="224535009"/>
            <display value="Registered nurse"/>
          </coding>
        </code>
        <specialty>
          <coding>
            <system value="http://snomed.info/sct"/>
            <code value="394609007"/>
            <display value="General surgery (qualifier value)"/>
          </coding>
        </specialty>
        <telecom>
          <system value="phone"/>
          <value value="02-29412345"/>
          <use value="work"/>
        </telecom>
        <telecom>
          <system value="email"/>
          <value value="meiling.wang@ltc-center.tw"/>
          <use value="work"/>
        </telecom>
        <availableTime>
          <daysOfWeek value="mon"/>
          <daysOfWeek value="tue"/>
          <daysOfWeek value="wed"/>
          <daysOfWeek value="thu"/>
          <daysOfWeek value="fri"/>
          <availableStartTime value="08:00:00"/>
          <availableEndTime value="17:00:00"/>
        </availableTime>
      </PractitionerRole>
    </resource>
  </entry>
  <entry>
    <fullUrl value="http://ltc-ig.fhir.tw/Goal/ltc-goal-mobility-improvement-example"/>
    <resource>
      <Goal>
        <id value="ltc-goal-mobility-improvement-example"/>
        <meta>
          <profile value="http://ltc-ig.fhir.tw/StructureDefinition/LTCGoal"/>
        </meta>
        <text>
          <status value="generated"/><div xmlns="http://www.w3.org/1999/xhtml"><a name="Goal_ltc-goal-mobility-improvement-example"> </a><p class="res-header-id"><b>Generated Narrative: Goal ltc-goal-mobility-improvement-example</b></p><a name="ltc-goal-mobility-improvement-example"> </a><a name="hcltc-goal-mobility-improvement-example"> </a><div style="display: inline-block; background-color: #d9e0e7; padding: 6px; margin: 4px; border: 1px solid #8da1b4; border-radius: 5px; line-height: 60%"><p style="margin-bottom: 0px"/><p style="margin-bottom: 0px">Profile: <a href="StructureDefinition-LTCGoal.html">長期照顧－照顧目標</a></p></div><p><b>lifecycleStatus</b>: Active</p><p><b>description</b>: <span title="Codes:{http://snomed.info/sct 710950005}">改善住民行動能力</span></p><p><b>subject</b>: <a href="Patient-ltc-patient-chen-ming-hui.html">陳明慧 Female, DoB: 1945-03-15 ( National Person Identifier (TWN): A123456789 (use: official, ))</a></p><p><b>start</b>: 2024-01-15</p><h3>Targets</h3><table class="grid"><tr><td style="display: none">-</td><td><b>Measure</b></td><td><b>Detail[x]</b></td><td><b>Due[x]</b></td></tr><tr><td style="display: none">*</td><td><span title="Codes:{http://snomed.info/sct 82971005}">Impaired mobility (finding)</span></td><td>能夠獨立使用助行器行走50公尺</td><td>2024-04-15</td></tr></table><p><b>expressedBy</b>: <a href="PractitionerRole-ltc-practitioner-role-nurse-example.html">PractitionerRole Registered nurse</a></p><p><b>note</b>: @2024-01-15</p><blockquote><div><p>住民目前需要部分協助才能行走，期望透過復健訓練達到獨立行走的目標</p>
</div></blockquote></div>
        </text>
        <lifecycleStatus value="active"/>
        <description>
          <coding>
            <system value="http://snomed.info/sct"/>
            <code value="710950005"/>
            <display value="Progressive mobility (regime/therapy)"/>
          </coding>
          <text value="改善住民行動能力"/>
        </description>
        <subject>
          <reference value="Patient/ltc-patient-chen-ming-hui"/>
        </subject>
        <startDate value="2024-01-15"/>
        <target>
          <measure>
            <coding>
              <system value="http://snomed.info/sct"/>
              <code value="82971005"/>
              <display value="Impaired mobility (finding)"/>
            </coding>
          </measure>
          <detailString value="能夠獨立使用助行器行走50公尺"/>
          <dueDate value="2024-04-15"/>
        </target>
        <expressedBy>
          <reference value="PractitionerRole/ltc-practitioner-role-nurse-example"/>
        </expressedBy>
        <note>
          <time value="2024-01-15"/>
          <text value="住民目前需要部分協助才能行走，期望透過復健訓練達到獨立行走的目標"/>
        </note>
      </Goal>
    </resource>
  </entry>
  <entry>
    <fullUrl value="http://ltc-ig.fhir.tw/RelatedPerson/ltc-related-person-primary-caregiver-example"/>
    <resource>
      <RelatedPerson>
        <id value="ltc-related-person-primary-caregiver-example"/>
        <meta>
          <profile value="http://ltc-ig.fhir.tw/StructureDefinition/LTCRelatedPerson"/>
        </meta>
        <text>
          <status value="extensions"/><div xmlns="http://www.w3.org/1999/xhtml"><a name="RelatedPerson_ltc-related-person-primary-caregiver-example"> </a><p class="res-header-id"><b>Generated Narrative: RelatedPerson ltc-related-person-primary-caregiver-example</b></p><a name="ltc-related-person-primary-caregiver-example"> </a><a name="hcltc-related-person-primary-caregiver-example"> </a><div style="display: inline-block; background-color: #d9e0e7; padding: 6px; margin: 4px; border: 1px solid #8da1b4; border-radius: 5px; line-height: 60%"><p style="margin-bottom: 0px"/><p style="margin-bottom: 0px">Profile: <a href="StructureDefinition-LTCRelatedPerson.html">長期照顧－關係人</a></p></div><p><b>是否為主要照顧者</b>: true</p><p><b>active</b>: true</p><p><b>patient</b>: <a href="Patient-ltc-patient-chen-ming-hui.html">陳明慧 Female, DoB: 1945-03-15 ( National Person Identifier (TWN): A123456789 (use: official, ))</a></p><p><b>relationship</b>: <span title="Codes:{http://terminology.hl7.org/CodeSystem/v3-RoleCode CHILD}">child</span></p><p><b>name</b>: 陳志強</p><p><b>telecom</b>: ph: 0987654321(Mobile), ph: 02-27031234(Home)</p><p><b>gender</b>: Male</p><p><b>address</b>: 台北市大安區仁愛路三段55號8樓(home)</p></div>
        </text>
        <extension url="http://ltc-ig.fhir.tw/StructureDefinition/ExtRelatedPersonIsPrimary-TWLTC">
          <valueBoolean value="true"/>
        </extension>
        <active value="true"/>
        <patient>
          <reference value="Patient/ltc-patient-chen-ming-hui"/>
        </patient>
        <relationship>
          <coding>
            <system value="http://terminology.hl7.org/CodeSystem/v3-RoleCode"/>
            <code value="CHILD"/>
            <display value="child"/>
          </coding>
        </relationship>
        <name>
          <use value="usual"/>
          <text value="陳志強"/>
          <family value="陳"/>
          <given value="志強"/>
        </name>
        <telecom>
          <system value="phone"/>
          <value value="0987654321"/>
          <use value="mobile"/>
        </telecom>
        <telecom>
          <system value="phone"/>
          <value value="02-27031234"/>
          <use value="home"/>
        </telecom>
        <gender value="male"/>
        <address>
          <use value="home"/>
          <text value="台北市大安區仁愛路三段55號8樓"/>
          <line value="仁愛路三段55號8樓"/>
          <city value="大安區"/>
          <state value="台北市"/>
          <postalCode value="10657"/>
          <country value="TW"/>
        </address>
      </RelatedPerson>
    </resource>
  </entry>
</Bundle>